MatOldNew	PairNum	Deck1Feedback	Deck2Feedback	Pay1Back	Pay1BackTrial	Mat1Back	DelayDecks	SwitchDecks	Switch1Back	Sub	Trial	Pay	RT	Resp	ChosenSide	choice	Stay
0	1	0.6	0.8	NaN	NaN	NaN	NaN	NaN	NaN	1	1	0.6	457.019113004208	j	1	0	NaN
0	2	0.6	0.2	NaN	NaN	NaN	1	1	NaN	1	2	0.2	561.763219535351	j	1	1	NaN
1	2	0.2	0.6	0.2	0.6	0	0	0	1	1	3	0.2	411.744585260749	j	1	0	0
0	1	0	0.6	0.6	NaN	0	2	1	NaN	1	4	NaN	NaN	NaN	NaN	NaN	0
0	2	0	1	0.2	0.2	0	1	1	0	1	5	1	503.23667190969	k	2	1	0
1	2	-0	0.8	1	NaN	0	0	0	1	1	6	-0	478.70965488255	j	1	0	0
0	1	0.2	0.4	NaN	0.2	0	2	1	1	1	7	0.2	672.883003950119	k	2	0	0
1	1	0	0.6	0.2	-0	0	0	0	1	1	8	0	651.167703792453	j	1	0	1
1	2	0	1	-0	1	1	2	1	0	1	9	1	595.427667722106	j	1	1	0
1	2	0.2	1	1	0	1	0	0	1	1	10	1	542.02526062727	j	1	1	1
1	1	0.4	0.6	0	0.2	1	2	1	0	1	11	0.6	813.800869509578	j	1	1	0
1	1	0.4	0.2	0.6	1	1	0	0	1	1	12	0.2	494.980165734887	j	1	1	1
0	2	0.2	0.8	1	1	1	2	1	0	1	13	0.8	390.899617224932	k	2	1	1
1	1	0.4	0.6	0.2	0.6	1	1	1	0	1	14	0.6	402.155559509993	k	2	1	1
1	1	0.4	0	0.6	0.8	1	0	0	1	1	15	0	531.385472044349	k	2	1	1
1	2	0.4	1	0.8	0.2	1	2	1	1	1	16	1	422.471405938268	j	1	1	1
1	2	0.4	1	1	0	1	0	0	1	1	17	1	574.681732803583	j	1	1	1
0	1	0.2	0.8	0	0.6	1	2	1	0	1	18	0.8	375.937208533287	j	1	1	1
1	1	0.4	0.6	0.8	1	0	0	0	1	1	19	0.6	578.370308503509	k	2	1	1
1	2	0.2	0.6	1	1	0	2	1	0	1	20	0.6	683.150513097644	k	2	1	1
0	1	0	0.6	0.6	0.8	1	1	1	0	1	21	0.6	554.358975961804	k	2	1	1
1	1	0	0.6	0.6	0.6	0	0	0	1	1	22	0.6	517.052065581083	j	1	1	1
0	2	1	0.6	0.6	0.6	1	2	1	1	1	23	0.6	622.344952076674	j	1	1	1
1	1	0.4	0.8	0.6	0.6	1	1	1	0	1	24	0.8	655.924528837204	k	2	1	1
0	2	0.8	0.4	0.6	0.6	0	1	1	1	1	25	0.4	408.010510727763	k	2	1	1
0	1	0.4	0.6	0.8	0.6	1	1	1	1	1	26	0.6	426.136899739504	j	1	1	1
1	2	0.2	0.6	0.4	0.8	1	1	1	1	1	27	0.6	460.794439539313	j	1	1	1
0	2	0.8	0.8	0.6	0.6	1	0	0	1	1	28	0.8	580.302791669965	j	1	1	1
1	1	0.6	0.6	0.6	0.4	0	2	1	1	1	29	0.6	460.864786058664	k	2	1	1
0	1	0.4	0.4	0.6	0.8	1	0	0	1	1	30	0.4	454.147882759571	k	2	1	1
0	1	0.8	0	0.4	0.6	0	0	0	0	1	31	0.8	530.051965266466	j	1	0	0
1	2	0.4	0.8	0.8	0.6	0	3	1	0	1	32	0.8	400.495922192931	k	2	1	1
1	1	0.4	0.4	0.8	0.4	0	1	1	0	1	33	0.4	659.506227821112	k	2	0	1
0	2	0	0	0.8	0.8	1	1	1	1	1	34	0	454.343222081661	j	1	1	1
1	1	1	0.2	0.4	0.8	1	1	1	1	1	35	1	469.993880018592	k	2	0	1
1	1	0.8	0.4	1	0	1	0	0	1	1	36	0.8	541.990742087364	k	2	0	1
0	2	0.4	0.2	0	0.4	0	2	1	1	1	37	0.4	456.498978659511	k	2	0	0
1	2	-0	0.4	0.4	0.8	0	0	0	1	1	38	-0	852.010808885098	j	1	0	1
1	1	0.4	0	0.8	1	1	2	1	0	1	39	0.4	493.331393226981	k	2	0	1
1	2	0.8	0.4	-0	0.4	1	1	1	0	1	40	0.4	382.991664111614	k	2	1	0
0	1	0.4	0.4	0.4	-0	1	1	1	1	1	41	0.4	528.054116293788	j	1	0	1
1	1	0.2	-0	0.4	0.4	0	0	0	1	1	42	-0	592.547550797462	k	2	1	0
1	2	0.6	0.6	0.4	0.4	1	2	1	1	1	43	0.6	466.257987543941	j	1	1	1
1	1	0.6	0.6	-0	0.4	1	1	1	0	1	44	0.6	403.257934376597	k	2	1	1
1	2	0.4	0.2	0.6	-0	1	1	1	1	1	45	0.2	491.808550432324	k	2	1	1
0	1	0.4	0.2	0.6	0.6	1	1	1	1	1	46	0.2	428.46361733973	k	2	1	1
0	2	0.4	0.6	0.2	0.6	1	1	1	1	1	47	0.4	599.343860521913	j	1	0	0
1	2	0.6	0	0.4	0.2	0	0	0	1	1	48	0.6	551.220700144768	j	1	0	1
1	2	1	0.4	0.6	0.4	1	0	0	0	1	49	1	423.962043598294	j	1	0	1
1	2	0.6	0.6	1	0.6	1	0	0	0	1	50	0.6	440.984893590212	j	1	0	1
0	1	0.4	1	0.2	0.2	0	4	1	1	1	51	0.4	541.173368692398	j	1	0	0
0	2	0.8	0.2	0.6	1	0	1	1	0	1	52	0.8	492.8980153054	j	1	0	1
1	1	-0	0.6	0.4	0.6	0	1	1	1	1	53	-0	445.418206974864	j	1	0	1
0	2	0.2	0.4	0.8	0.4	0	1	1	1	1	54	0.2	494.838880375028	j	1	0	1
0	1	0.6	1	-0	0.8	1	1	1	1	1	55	1	400.014350190759	j	1	1	0
0	1	0.2	0.4	1	0.2	0	0	0	1	1	56	0.4	457.395019009709	j	1	1	1
0	1	0.4	1	0.4	1	0	0	0	0	1	57	1	453.661616891623	j	1	1	1
0	1	0	0.4	1	0.4	0	0	0	0	1	58	0.4	420.727510005236	j	1	1	1
0	2	0.4	0.8	0.2	-0	1	4	1	1	1	59	0.8	509.716402739286	k	2	1	0
0	1	0.4	0.4	0.4	1	0	1	1	0	1	60	0.4	440.278014168143	k	2	0	0
0	2	0.2	0.4	0.8	0.4	0	1	1	1	1	61	0.4	543.179588392377	k	2	1	1
0	1	0.4	1	0.4	0.8	0	1	1	1	1	62	0.4	434.870509430766	j	1	0	1
1	2	0.2	0	0.4	0.4	0	1	1	1	1	63	0	411.382358521223	j	1	1	1
0	2	0.4	0.2	0	0.4	0	0	0	1	1	64	0.2	829.291889443994	j	1	1	1
1	1	0.4	0.4	0.4	0.4	0	2	1	1	1	65	0.4	494.454327970743	j	1	1	0
0	1	0.4	0.8	0.4	0.2	1	0	0	1	1	66	0.8	638.899650424719	j	1	1	1
1	2	0.4	-0	0.2	0	0	2	1	0	1	67	0.4	505.795858800411	j	1	0	0
1	1	0.4	0.8	0.8	0.4	0	1	1	0	1	68	0.8	617.413712665439	j	1	1	1
0	2	0.8	-0	0.4	0.8	0	1	1	1	1	69	-0	386.658973991871	k	2	1	0
0	2	0.4	0	-0	0.8	0	0	0	1	1	70	0	405.279221013188	k	2	1	1
1	2	0	-0	0	-0	1	0	0	0	1	71	0	470.406986773014	j	1	0	0
0	2	0.6	0	0	0	0	0	0	0	1	72	0.6	607.361664995551	k	2	0	1
1	1	0.4	0.2	0.8	0.4	1	4	1	1	1	73	0.2	928.244723007083	k	2	1	1
0	2	0.4	0.2	0.6	0	1	1	1	0	1	74	0.2	634.90897975862	j	1	1	0
0	2	0.8	0.6	0.2	0.2	1	0	0	1	1	75	0.8	426.444783806801	j	1	0	0
0	2	0.2	0	0.8	0.2	1	0	0	0	1	76	0.2	357.86266438663	j	1	0	1
0	2	1	0.2	0.2	0.8	0	0	0	0	1	77	1	382.383439689875	k	2	0	1
1	1	0.2	0.4	0.2	0.6	1	4	1	1	1	78	0.2	879.349628463387	j	1	0	0
1	2	1	0.6	1	0.2	1	1	1	0	1	79	1	449.220301583409	j	1	0	1
0	1	1	0.4	0.2	1	1	1	1	1	1	80	1	651.578364893794	j	1	0	1
1	1	1	0.2	1	1	0	0	0	1	1	81	1	500.867558643222	k	2	0	1
0	2	0.2	0.2	1	0.2	0	2	1	1	1	82	0.2	587.905284017324	j	1	0	1
1	2	1	0	0.2	1	0	0	0	1	1	83	1	567.549919709563	j	1	0	1
0	1	0.8	-0	1	1	1	2	1	0	1	84	0.8	567.164964973927	k	2	0	1
1	2	0.8	0	1	0.2	0	1	1	0	1	85	0.8	512.457314878702	j	1	0	1
1	2	0.8	0	0.8	0.8	0	0	0	1	1	86	0.8	419.177047908306	k	2	0	1
0	1	0.4	0.4	0.8	1	0	2	1	1	1	87	0.4	485.118363052607	k	2	0	1
0	2	0.6	0.8	0.8	0.8	0	1	1	0	1	88	0.6	420.680237933993	j	1	0	1
0	2	0.4	0	0.6	0.4	0	0	0	1	1	89	0.4	493.438160046935	j	1	0	1
0	1	0.2	0.4	0.4	0.8	0	2	1	1	1	90	0.2	417.0374982059	j	1	0	1
0	2	0.4	0.2	0.4	0.6	0	1	1	0	1	91	0.4	727.305356413126	k	2	0	1
0	2	0.6	0	0.4	0.2	1	0	0	1	1	92	0.6	544.147383421659	j	1	0	1
0	2	0.4	-0	0.6	0.4	1	0	0	0	1	93	0.4	401.311997324228	j	1	0	1
0	1	0.2	0	0.2	0.4	0	3	1	1	1	94	0.2	435.597289353609	k	2	0	1
0	1	1	0.2	0.2	0.4	0	0	0	1	1	95	1	532.624555751681	k	2	0	1
0	1	1	0	1	0.2	0	0	0	0	1	96	1	446.830088272691	k	2	0	1
0	2	0.6	0	0.4	0.6	0	3	1	0	1	97	0.6	567.611852660775	j	1	0	1
0	1	0.8	0.2	1	1	0	1	1	0	1	98	0.8	521.220494061708	j	1	0	1
1	1	0.8	0.6	0.8	0.6	0	0	0	1	1	99	0.8	513.175755739212	j	1	0	1
0	2	0.4	0.4	0.6	1	1	2	1	1	1	100	0.4	400.886129587889	k	2	0	1
1	1	1	0.6	0.8	0.8	1	1	1	0	1	101	1	515.040339902043	j	1	0	1
0	2	0.6	0.6	0.4	0.8	1	1	1	1	1	102	0.6	342.335816472769	k	2	1	0
0	2	0.4	-0	0.6	1	1	0	0	1	1	103	0.4	718.697292730212	j	1	0	0
0	1	0.6	0.4	1	0.4	1	2	1	1	1	104	0.6	472.353516146541	k	2	0	1
1	1	0.6	0.8	0.6	0.4	0	0	0	1	1	105	0.6	472.794255241752	j	1	0	1
1	2	1	0	0.4	0.6	1	2	1	0	1	106	1	633.99706967175	k	2	0	1
1	1	0.8	0.2	0.6	0.6	1	1	1	0	1	107	0.8	541.0086940974	j	1	0	1
1	2	0.6	0	1	0.6	0	1	1	1	1	108	0.6	371.734263375401	k	2	0	1
1	2	0.4	0.4	0.6	0.8	0	0	0	1	1	109	0.4	405.456453561783	k	2	0	1
1	1	0.6	0.8	0.8	1	1	2	1	1	1	110	0.6	472.757430747151	k	2	0	1
1	1	0.6	0.4	0.6	0.4	1	0	0	1	1	111	0.6	376.080708578229	j	1	0	1
0	2	-0	0	0.4	0.6	0	2	1	0	1	112	-0	539.863662794232	j	1	0	1
0	2	0	0.6	-0	0.6	0	0	0	1	1	113	0.6	508.811349049211	j	1	1	0
0	2	0.2	0.2	0.6	-0	0	0	0	0	1	114	0.2	508.651480078697	k	2	1	1
0	1	1	0.4	0.6	0.6	1	3	1	0	1	115	0.4	654.264068230987	k	2	1	0
0	1	0.6	0.6	0.4	0.2	0	0	0	1	1	116	0.6	473.35328347981	k	2	1	1
0	2	0.2	0.8	0.2	0.6	1	2	1	0	1	117	0.8	472.416551783681	j	1	1	1
1	2	0.4	0	0.8	0.6	0	0	0	1	1	118	0	617.089627310634	j	1	1	1
1	2	0.2	0.6	0	0.8	1	0	0	0	1	119	0.6	429.313892498612	j	1	1	1
0	1	0.2	0.4	0.6	0.4	0	3	1	0	1	120	0.4	365.206383168697	k	2	1	1
0	1	0	0.4	0.4	0.6	0	0	0	1	1	121	0.4	456.549406051636	k	2	1	1
0	1	0.2	0.6	0.4	0.4	0	0	0	0	1	122	0.6	521.273199468851	k	2	1	1
1	1	0.6	0.6	0.6	0.4	0	0	0	0	1	123	0.6	552.294174209237	j	1	1	1
0	1	0.6	0.6	0.6	0.6	1	0	0	0	1	124	0.6	484.323600307107	k	2	1	1
0	2	0.2	0.4	0.6	0	0	5	1	0	1	125	0.4	555.045336484909	j	1	1	1
1	1	0.2	0.8	0.6	0.6	0	1	1	0	1	126	0.8	606.505300849676	k	2	1	1
0	1	0.2	1	0.8	0.4	1	0	0	1	1	127	1	598.456939682364	j	1	1	1
0	2	0.6	0.4	0.4	0.6	1	2	1	1	1	128	0.4	600.624850019813	k	2	1	1
1	1	0.2	0.6	1	0.8	0	1	1	0	1	129	0.6	441.937288269401	j	1	1	1
1	2	1	0.2	0.4	1	0	1	1	1	1	130	0.2	692.218348383904	k	2	1	1
0	2	0.4	0.8	0.2	0.6	0	0	0	1	1	131	0.4	451.715394854546	j	1	0	0
1	2	1	0.2	0.4	0.2	1	0	0	0	1	132	1	516.065439209342	j	1	0	1
1	2	1	1	1	0.4	0	0	0	0	1	133	1	415.93818180263	k	2	0	1
0	1	0.2	0.8	0.6	0.4	1	4	1	1	1	134	0.2	424.115201458335	k	2	0	0
1	2	0.8	0.2	1	1	1	1	1	0	1	135	0.8	552.697710692883	j	1	0	1
0	1	0.8	0.6	0.2	1	0	1	1	1	1	136	0.8	459.223564714193	j	1	0	1
0	2	0.8	0.4	0.8	0.2	0	1	1	1	1	137	0.8	444.317642599344	k	2	0	1
0	2	0.4	0.8	0.8	0.8	0	0	0	1	1	138	0.4	541.772829368711	j	1	0	1
1	1	0.2	1	0.8	0.8	0	2	1	1	1	139	0.2	839.834107086062	j	1	0	1
1	2	0.6	1	0.4	0.8	1	1	1	0	1	140	0.6	593.299992382526	j	1	0	1
0	1	0.6	0	0.2	0.4	1	1	1	1	1	141	0	570.237500593066	k	2	1	0
1	2	0.4	0.4	0.6	0.2	0	1	1	1	1	142	0.4	585.95615439117	k	2	0	1
1	1	0.4	0.6	0	0.6	0	1	1	1	1	143	0.4	539.604913443327	k	2	0	0
0	2	1	0.2	0.4	0	0	1	1	1	1	144	1	492.441749200225	j	1	0	1
0	2	0.6	0.4	1	0.4	0	0	0	1	1	145	0.6	613.818939775229	k	2	0	1
1	2	0.8	0.6	0.6	1	1	0	0	0	1	146	0.8	465.355444699526	k	2	0	1
0	1	0.6	0.8	0.4	0.4	1	3	1	1	1	147	0.6	458.334516733885	k	2	0	1
1	2	0	0.8	0.8	0.6	1	1	1	0	1	148	0	450.483083724976	j	1	0	1
0	2	0.8	1	0	0.6	0	0	0	1	1	149	0.8	597.530785948038	k	2	0	1
0	1	0.6	0.6	0.6	0.8	0	2	1	1	1	150	0.6	532.15866163373	j	1	0	1
0	2	0.4	0.6	0.8	0	0	1	1	0	1	151	0.4	480.298196896911	j	1	0	1
1	1	0	0.8	0.6	0.8	0	1	1	1	1	152	0	447.618156671524	k	2	0	1
0	2	0.4	0.4	0.4	0.6	0	1	1	1	1	153	0.4	362.180195748806	k	2	1	0
0	1	-0	0.4	0	0.4	1	1	1	1	1	154	0.4	737.992143258452	k	2	1	0
0	1	0.4	0.6	0.4	0.4	0	0	0	1	1	155	0.6	516.087748110294	j	1	1	1
0	1	0.2	0	0.6	0.4	0	0	0	0	1	156	0	556.179504841566	j	1	1	1
0	2	0.6	0.4	0.4	0	0	3	1	1	1	157	0.4	454.171003773808	j	1	1	1
1	1	0.2	0.6	0	0.6	0	1	1	0	1	158	0.6	465.611403807998	k	2	1	1
1	1	0.8	0.8	0.6	0.4	1	0	0	1	1	159	0.8	521.472051739693	j	1	1	1
0	1	0.6	-0	0.8	0.6	1	0	0	0	1	160	-0	492.117252200842	j	1	1	1
0	1	1	0.4	-0	0.8	0	0	0	0	1	161	1	412.935404106975	j	1	0	0
0	1	0.4	0.4	1	-0	0	0	0	0	1	162	0.4	349.374189972878	j	1	0	1
0	2	0.2	0.8	0.4	0	1	5	1	1	1	163	0.2	623.833199962974	j	1	0	0
1	2	0.2	0.2	0.2	0.4	0	0	0	1	1	164	0.2	776.877937838435	k	2	0	1
0	1	1	-0	0.4	1	0	2	1	0	1	165	-0	723.535023629665	j	1	1	0
0	2	0	0.4	0.2	0.2	1	1	1	0	1	166	0.4	498.289059847593	j	1	1	0
1	1	1	0.4	-0	0.2	0	1	1	1	1	167	1	373.19627776742	k	2	0	0
0	1	-0	0	1	0.4	1	0	0	1	1	168	-0	468.596398830414	j	1	0	1
1	2	0.6	1	0.4	-0	1	2	1	1	1	169	1	720.506647601724	j	1	1	1
1	1	0.8	-0	-0	1	0	1	1	0	1	170	0.8	503.205137327313	k	2	0	1
1	1	0.4	0.4	0.8	1	1	0	0	1	1	171	0.4	456.746032461524	j	1	0	1
0	1	0.4	0.4	0.4	0.8	1	0	0	0	1	172	0.4	722.437981516123	k	2	0	1
0	2	0	0.6	1	-0	0	3	1	1	1	173	0.6	549.671644344926	k	2	1	1
1	1	0.8	1	0.4	0.4	0	1	1	0	1	174	0.8	542.252773419023	k	2	0	1
1	2	0.4	0.4	0.6	0.4	1	1	1	1	1	175	0.4	486.989755183458	j	1	0	0
1	2	0.6	0.4	0.4	0.8	0	0	0	1	1	176	0.6	521.850181743503	j	1	0	1
0	1	1	1	0.8	0.6	1	2	1	1	1	177	1	539.153611287475	k	2	0	1
1	1	0	0.4	1	0.6	0	0	0	1	1	178	0	554.749241098762	j	1	0	1
0	2	0.6	0.6	0.6	0.4	1	2	1	0	1	179	0.6	502.007886767387	j	1	0	1
0	2	0.4	0.2	0.6	0	1	0	0	1	1	180	0.4	557.377517223358	j	1	0	1
0	2	0.2	1	0.4	0.6	0	0	0	0	1	181	1	496.492374688387	j	1	1	0
1	1	0.2	0.2	0	1	1	3	1	0	1	182	0.2	409.794008359313	j	1	1	0
0	1	0.4	0	0.2	1	1	0	0	1	1	183	0	412.44556568563	j	1	1	1
1	2	0.2	1	1	0.4	1	2	1	0	1	184	1	486.400108784437	j	1	1	1
1	1	0.8	0.4	0	0.2	0	1	1	0	1	185	0.8	479.514088481665	k	2	0	0
0	1	0	1	0.8	1	1	0	0	1	1	186	0	464.319555088878	k	2	0	1
1	2	0.4	0.8	1	0	0	2	1	1	1	187	0.8	465.562719851732	j	1	1	1
0	1	0.4	0.4	0	0.8	0	1	1	0	1	188	0.4	394.498124718666	k	2	0	1
1	2	0.4	0.8	0.8	0	0	1	1	1	1	189	0.4	547.683967277408	j	1	0	0
1	1	0.6	0.2	0.4	0.8	0	1	1	1	1	190	0.6	407.060099765658	k	2	0	1
0	1	0.8	0.6	0.6	0.4	1	0	0	1	1	191	0.8	421.636942774057	j	1	0	1
0	2	0	1	0.4	0.4	1	2	1	1	1	192	1	423.107143491507	k	2	1	0
1	2	0.4	1	1	0.8	0	0	0	1	1	193	1	393.070200458169	k	2	1	1
0	2	0.6	1	1	1	0	0	0	0	1	194	1	611.377691850066	k	2	1	1
1	2	-0	0	1	1	0	0	0	0	1	195	0	539.402719587088	j	1	1	1
0	1	1	0.4	0.8	0.6	0	4	1	0	1	196	1	613.023512065411	k	2	0	1
0	1	0.4	0.2	1	0	0	0	0	1	1	197	0.4	462.289873510599	j	1	0	1
1	2	0	0.8	0	1	1	2	1	0	1	198	0.8	535.563027486205	k	2	1	1
1	1	0.2	0	0.4	1	0	1	1	0	1	199	0.2	457.111839205027	j	1	0	1
0	2	0.2	0.8	0.8	0.4	1	1	1	1	1	200	0.8	584.975242614746	j	1	1	1
1	1	0.8	0.2	0.2	0.8	1	1	1	1	1	201	0.8	539.871068671346	k	2	0	1
1	2	0.6	0.8	0.8	0.2	1	1	1	1	1	202	0.8	605.888022109866	j	1	1	1
1	2	0.8	0.4	0.8	0.8	0	0	0	1	1	203	0.4	749.984150752425	k	2	1	1
1	1	0.4	0.4	0.8	0.8	1	2	1	1	1	204	0.4	454.455137252808	k	2	0	1
0	2	0.2	0.4	0.4	0.8	0	1	1	0	1	205	0.4	368.018958717585	k	2	1	1
0	1	0.2	0	0.4	0.4	1	1	1	1	1	206	0.2	467.750228941441	j	1	0	1
1	2	0	0.8	0.4	0.4	1	1	1	1	1	207	0	354.7408208251	j	1	0	0
0	1	0.6	0.6	0.2	0.4	0	1	1	1	1	208	0.6	751.123834401369	k	2	1	0
1	1	0.6	0.4	0.6	0	0	0	0	1	1	209	0.4	549.873450770974	j	1	1	1
0	2	0.2	0.6	0	0.2	1	2	1	1	1	210	0.2	737.456833943725	k	2	0	1
1	2	0.4	0.6	0.2	0.4	1	0	0	1	1	211	0.6	730.459023267031	k	2	1	0
1	1	0.8	0.2	0.4	0.6	1	2	1	0	1	212	0.2	426.777305081487	j	1	1	1
1	2	0.2	0.8	0.6	0.2	1	1	1	0	1	213	0.2	779.901448637247	k	2	0	0
1	2	0	0.4	0.2	0.2	0	0	0	1	1	214	0.4	422.883974388242	j	1	1	0
1	1	0.6	0.2	0.2	0.6	1	2	1	1	1	215	0.6	495.727676898241	j	1	0	0
1	1	0.4	0	0.6	0.4	1	0	0	1	1	216	0.4	496.732383966446	j	1	0	1
0	1	0.6	0.8	0.4	0.6	1	0	0	0	1	217	0.6	394.592773169279	j	1	0	1
1	1	0.8	0.6	0.6	0.4	0	0	0	0	1	218	0.8	450.79493150115	k	2	0	1
1	2	0.2	0.4	0.4	0.2	1	4	1	0	1	219	0.4	748.164063319564	j	1	1	1
1	2	0.2	0.2	0.4	0.8	0	0	0	1	1	220	0.2	571.966866031289	j	1	1	1
0	1	0.6	1	0.8	0.6	1	2	1	0	1	221	0.6	430.996363982558	j	1	0	1
0	2	0	0.4	0.2	0.4	1	1	1	0	1	222	0	928.555704653263	j	1	0	0
0	2	0	0.6	0	0.6	0	0	0	1	1	223	0.6	385.112062096596	k	2	1	0
1	1	0	0.6	0.6	0.2	0	2	1	1	1	224	0.6	489.28957991302	k	2	1	0
1	2	0.2	0.2	0.6	0	0	1	1	0	1	225	0.2	564.015712589025	j	1	1	1
0	1	0.2	0.2	0.6	0.6	1	1	1	1	1	226	0.2	645.07713727653	j	1	1	1
1	2	0.2	0	0.2	0.6	1	1	1	1	1	227	0.2	784.017080441117	k	2	0	0
1	2	0.4	0.2	0.2	0.2	1	0	0	1	1	228	0.2	583.40921998024	j	1	1	0
1	2	0.8	0.2	0.2	0.2	1	0	0	0	1	229	0.8	834.462014958262	j	1	0	0
0	2	-0	0	0.8	0.2	0	0	0	0	1	230	-0	387.663703411818	j	1	0	1
0	1	0.4	0.6	0.2	0.2	0	4	1	1	1	231	0.4	827.482108026743	j	1	0	0
1	1	0.4	0.4	0.4	-0	0	0	0	1	1	232	0.4	718.804858624935	k	2	0	1
0	2	0.4	0.2	-0	0.8	1	2	1	0	1	233	0.4	495.730996131897	j	1	0	1
1	1	0.2	0.6	0.4	0.4	1	1	1	0	1	234	0.2	599.708404392004	k	2	0	1
0	2	0.2	0.2	0.4	0.4	1	1	1	1	1	235	0.2	408.20225328207	j	1	0	1
1	1	0.4	0.8	0.2	0.4	1	1	1	1	1	236	0.8	555.746465921402	j	1	1	0
0	1	0.4	1	0.8	0.2	1	0	0	1	1	237	1	380.894497036934	k	2	1	1
1	2	1	0.4	0.2	0.2	1	2	1	1	1	238	0.4	775.757504627109	j	1	1	0
1	2	0.6	0.2	0.4	1	0	0	0	1	1	239	0.2	534.163786098361	k	2	1	1
1	1	0.2	0.4	1	0.8	0	2	1	0	1	240	0.4	479.53405790031	j	1	1	1
1	1	0.2	0.4	0.4	0.2	1	0	0	1	1	241	0.4	537.745334208012	j	1	1	1
1	1	1	0.8	0.4	0.4	1	0	0	0	1	242	0.8	459.707703441381	j	1	1	1
1	2	0.6	0.2	0.2	0.4	1	3	1	0	1	243	0.2	557.109948247671	j	1	1	1
0	2	0.8	0.4	0.2	0.8	1	0	0	1	1	244	0.4	527.546102181077	j	1	1	1
0	1	1	0.4	0.8	0.4	1	2	1	0	1	245	0.4	470.844395458698	j	1	1	1
1	1	0.6	0.6	0.4	0.4	0	0	0	1	1	246	0.6	531.158730387688	k	2	1	1
1	1	0.6	0.6	0.6	0.4	1	0	0	0	1	247	0.6	481.048736721277	k	2	1	1
0	2	1	0.2	0.4	0.2	1	3	1	0	1	248	0.2	723.473243415356	k	2	1	1
1	1	0.4	0.6	0.6	0.6	1	1	1	0	1	249	0.6	549.882523715496	j	1	1	1
0	1	0.6	1	0.6	0.2	1	0	0	1	1	250	1	502.76467949152	k	2	1	1
0	2	0.4	0.4	0.2	0.6	0	2	1	1	1	251	0.4	496.435476467013	k	2	1	1
1	1	0.6	0.6	1	0.6	0	1	1	0	1	252	0.6	730.549283325672	j	1	1	1
0	1	0.8	1	0.6	0.4	1	0	0	1	1	253	1	683.299995958805	j	1	1	1
1	1	0.4	0.2	1	0.6	0	0	0	0	1	254	0.2	553.372673690319	k	2	1	1
0	1	0.4	0.8	0.2	1	1	0	0	0	1	255	0.4	436.348667368293	j	1	0	0
1	2	0.4	0.8	0.4	1	1	4	1	1	1	256	0.8	580.627532675862	k	2	1	1
1	1	0.2	0.8	0.4	0.2	0	1	1	0	1	257	0.2	526.914443820715	j	1	0	1
0	1	0	0.2	0.2	0.8	1	0	0	1	1	258	0.2	513.405686244369	j	1	1	0
1	2	0.6	-0	0.8	0.4	0	2	1	1	1	259	-0	582.209648564458	k	2	1	1
0	1	0	0.2	0.2	0.2	0	1	1	0	1	260	0	594.882417470217	k	2	0	0
1	2	0.2	0.6	-0	0.2	1	1	1	1	1	261	0.2	515.880322083831	j	1	0	0
1	1	0.2	-0	0	-0	0	1	1	1	1	262	0.2	462.502207607031	j	1	0	1
1	1	0	0.2	0.2	0.2	1	0	0	1	1	263	0	581.887809559703	j	1	0	1
1	2	0.8	0	0.2	0	0	2	1	1	1	264	0	610.003488138318	j	1	1	0
0	1	0.2	0	0	0.2	1	1	1	0	1	265	0	337.252121418715	k	2	1	0
0	1	0.4	0.6	0	0	0	0	0	1	1	266	0.6	417.756957933307	j	1	1	1
1	2	0.6	0.6	0	0	1	2	1	1	1	267	0.6	670.476160943508	j	1	1	1
1	1	0	0.6	0.6	0	0	1	1	0	1	268	0.6	414.785236120224	j	1	1	1
1	1	0.4	0.2	0.6	0.6	1	0	0	1	1	269	0.2	446.071166545153	j	1	1	1
0	2	0.4	0.2	0.6	0.6	0	2	1	1	1	270	0.2	721.496237441897	k	2	1	1
1	2	0.6	0.8	0.2	0.2	0	0	0	1	1	271	0.8	468.761013820767	k	2	1	1
0	2	0.2	0.8	0.8	0.2	1	0	0	0	1	272	0.8	387.658564373851	k	2	1	1
0	2	0.8	0.2	0.8	0.8	1	0	0	0	1	273	0.2	422.301255166531	k	2	1	1
1	1	0.6	-0	0.2	0.6	1	4	1	0	1	274	-0	687.452670186758	k	2	1	1
1	1	1	0.6	-0	0.2	1	0	0	1	1	275	0.6	505.307259038091	k	2	1	1
1	1	0.6	0.2	0.6	-0	1	0	0	0	1	276	0.2	490.206819027662	j	1	1	1
0	1	0.4	0.6	0.2	0.6	1	0	0	0	1	277	0.4	459.545824676752	j	1	0	0
1	2	0.4	0.6	0.2	0.8	0	4	1	0	1	278	0.6	558.053219690919	j	1	1	1
1	1	0.4	0.4	0.4	0.2	0	1	1	0	1	279	0.4	525.29263868928	k	2	0	1
0	1	1	0.4	0.4	0.6	1	0	0	1	1	280	1	538.00442814827	k	2	0	1
0	2	0	0.8	0.6	0.4	0	2	1	1	1	281	0.8	545.880263671279	j	1	1	1
0	2	-0	0.6	0.8	1	1	0	0	1	1	282	0.6	514.753332361579	j	1	1	1
0	1	0.2	0.6	1	0.4	0	2	1	0	1	283	0.2	461.264237761497	j	1	0	1
1	2	0.8	1	0.6	0.8	1	1	1	0	1	284	1	486.872525885701	j	1	1	1
0	2	0.8	0.4	1	0.2	1	0	0	1	1	285	0.4	503.107998520136	k	2	1	1
1	2	0.6	0.8	0.4	1	1	0	0	0	1	286	0.6	792.941384017467	k	2	0	0
1	1	0.2	0.6	0.2	0.6	0	3	1	1	1	287	0.6	769.068842753768	k	2	1	0
0	2	0.4	0	0.6	0.4	1	1	1	0	1	288	0.4	523.639740422368	k	2	0	1
0	2	0	0.6	0.4	0.6	0	0	0	1	1	289	0	378.796620294452	k	2	0	1
1	2	0	0.4	0	0.4	1	0	0	0	1	290	0	518.375232815742	j	1	0	1
0	1	0.8	0.6	0.6	0.6	1	3	1	1	1	291	0.6	654.131395742297	j	1	1	1
0	1	0.4	0.8	0.6	0	0	0	0	1	1	292	0.8	442.048661410809	j	1	1	1
1	2	0	0	0	0	0	2	1	0	1	293	0	954.999662935734	k	2	0	1
1	1	1	0.4	0.8	0.6	0	1	1	0	1	294	0.4	610.182059928775	k	2	1	1
1	2	0	0.4	0	0.8	0	1	1	1	1	295	0.4	396.950028836727	k	2	1	0
1	1	0.8	0.4	0.4	0	1	1	1	1	1	296	0.4	406.208205968142	j	1	1	1
0	2	0.6	0.2	0.4	0.4	1	1	1	1	1	297	0.2	566.277697682381	k	2	1	1
1	1	0.2	0.6	0.4	0.4	1	1	1	1	1	298	0.6	833.869952708483	k	2	1	1
0	1	0.2	0.2	0.6	0.2	1	0	0	1	1	299	0.2	507.074432447553	k	2	1	1
1	1	0.2	0	0.2	0.6	0	0	0	0	1	300	0	460.824426263571	j	1	1	1
1	2	0.2	-0	0.2	0.4	0	3	1	1	1	301	-0	604.359555989504	j	1	1	1
0	2	0.4	0.4	-0	0	0	0	0	1	1	302	0.4	542.416138574481	j	1	0	0
0	1	0.2	0	0	0.2	1	2	1	0	1	303	0.2	519.921662285924	k	2	0	0
0	2	0.2	0.4	0.4	-0	1	1	1	0	1	304	0.2	545.652916654944	j	1	0	1
1	1	0.4	0.4	0.2	0.4	0	1	1	1	1	305	0.4	441.261688247323	k	2	0	1
1	2	0.6	0	0.2	0.2	1	1	1	1	1	306	0.6	467.561716213822	j	1	0	1
1	1	0.4	0.4	0.4	0.2	1	1	1	1	1	307	0.4	387.439295649529	k	2	0	1
1	2	0.6	0.4	0.6	0.4	1	1	1	1	1	308	0.4	575.125074014068	k	2	1	0
0	2	0.6	0.4	0.4	0.4	0	0	0	1	1	309	0.6	566.877549514174	j	1	0	0
1	2	0.4	0.2	0.6	0.4	1	0	0	0	1	310	0.4	498.067105188966	j	1	0	1
0	1	0.2	0.2	0.4	0.6	1	3	1	1	1	311	0.2	523.372175171971	k	2	0	1
0	2	0.4	0.6	0.4	0.6	0	1	1	0	1	312	0.4	610.772365704179	k	2	0	1
0	1	0.2	0.4	0.2	0.4	0	1	1	1	1	313	0.2	349.49910454452	k	2	0	1
0	2	0.6	0.2	0.4	0.2	1	1	1	1	1	314	0.6	788.991006091237	k	2	0	NaN
1	2	0.8	0	0.6	0.2	1	0	0	1	1	315	NaN	NaN	NaN	NaN	NaN	0
0	2	0	0	NaN	0.6	0	0	0	0	1	316	0	400.951717048883	k	2	0	0
0	2	1	0.2	0	NaN	0	0	0	0	1	317	0.2	546.422036364675	k	2	1	0
1	1	0.2	0.6	0.2	0.4	0	4	1	1	1	318	0.6	978.845061734319	k	2	1	0
0	1	0.2	0.8	0.6	0.2	1	0	0	1	1	319	0.8	396.298978477716	k	2	1	1
0	1	0.4	0.6	0.8	0.6	0	0	0	0	1	320	0.6	591.004177927971	j	1	1	1
0	2	0.6	0.2	0.2	0	1	3	1	0	1	321	0.2	798.350820317864	k	2	1	1
1	2	0.2	0.4	0.2	0.6	0	0	0	1	1	322	0.4	535.94864718616	j	1	1	1
0	2	0	0.4	0.4	0.2	0	0	0	0	1	323	0.4	977.598655968904	j	1	1	1
0	2	0.2	0	0.4	0.4	1	0	0	0	1	324	0	658.876115456223	j	1	1	1
1	1	0.8	0	0.6	0.8	0	4	1	0	1	325	0	676.233345642686	k	2	1	1
1	1	0.6	0	0	0	1	0	0	1	1	326	0	708.961913362145	k	2	1	1
0	1	1	0.2	0	0	1	0	0	0	1	327	1	350.618934258819	j	1	0	0
0	2	-0	0.6	0	0.4	1	3	1	0	1	328	-0	386.231971904635	k	2	0	0
0	2	1	0.4	-0	1	0	0	0	1	1	329	1	483.359917998314	j	1	0	1
1	2	0.6	0	1	-0	1	0	0	0	1	330	0.6	484.691699966788	j	1	0	1
1	1	0.4	0.8	1	0	0	3	1	0	1	331	0.4	796.310385689139	k	2	0	1
1	1	0.8	-0	0.4	0.6	1	0	0	1	1	332	0.8	623.394830152392	k	2	0	1
1	2	1	0.4	0.6	1	1	2	1	0	1	333	1	790.572987869382	j	1	0	1
1	1	0.6	0	0.8	0.4	1	1	1	0	1	334	0.6	537.518700584769	j	1	0	1
0	1	0.8	0	0.6	1	1	0	0	1	1	335	0.8	459.302032366395	j	1	0	1
1	2	0.2	0.8	1	0.8	1	2	1	1	1	336	0.2	949.053443968296	j	1	0	1
1	2	0.6	1	0.2	0.8	0	0	0	1	1	337	0.6	795.558515936136	j	1	0	1
1	1	0.8	0.4	0.8	0.6	0	2	1	0	1	338	0.8	605.541300028563	k	2	0	1
1	1	1	0.2	0.8	0.6	1	0	0	1	1	339	1	486.893150955439	j	1	0	1
0	1	0.6	0.6	1	0.8	1	0	0	0	1	340	0.6	544.757489115	j	1	0	1
0	2	0.4	0.6	0.6	0.2	1	3	1	0	1	341	0.4	483.322797343135	j	1	0	1
0	1	0.6	0.2	0.6	1	0	1	1	0	1	342	0.6	571.275610476732	j	1	0	1
0	1	1	0	0.6	0.4	0	0	0	1	1	343	1	436.81008182466	k	2	0	1
1	2	0.8	0.8	0.4	0.6	1	2	1	1	1	344	0.8	445.674547925591	j	1	0	1
0	2	0.2	0.6	0.8	1	0	0	0	1	1	345	0.2	480.466736480594	k	2	0	1
1	2	0.6	0.2	0.2	0.8	0	0	0	0	1	346	0.6	776.400441303849	j	1	0	1
1	1	0.4	0	1	0.6	0	3	1	0	1	347	0.4	785.108249634504	k	2	0	1
0	1	0.2	0	0.4	0.6	1	0	0	1	1	348	0.2	548.092737793922	j	1	0	1
1	1	0.2	0	0.2	0.4	0	0	0	0	1	349	0.2	469.43349018693	j	1	0	1
0	1	0	0.4	0.2	0.2	1	0	0	0	1	350	0.4	622.984826564789	j	1	1	0
0	1	0.2	0	0.4	0.2	0	0	0	0	1	351	0	352.861994877458	j	1	1	1
1	2	0.6	1	0.6	0.2	0	5	1	0	1	352	1	608.022125437856	j	1	1	0
1	2	0.6	0.4	1	0	1	0	0	1	1	353	0.4	394.728034734726	j	1	1	1
1	2	0.8	0.4	0.4	1	0	0	0	0	1	354	0.4	658.73571112752	k	2	1	NaN
0	2	1	0.6	0.4	0.4	1	0	0	0	1	355	NaN	NaN	NaN	NaN	NaN	0
1	1	0.8	0.4	0	0.4	0	4	1	0	1	356	0.8	478.559210896492	j	1	0	0
1	2	0.8	0.6	NaN	0.4	0	1	1	0	1	357	0.6	567.638484761119	k	2	1	0
0	1	0.2	0	0.8	NaN	1	1	1	1	1	358	0	905.652228742838	j	1	1	0
1	2	0.8	0.4	0.6	0.8	0	1	1	1	1	359	0.4	472.882794216275	j	1	1	1
0	2	0.6	0.6	0.4	0	1	0	0	1	1	360	0.6	996.60143814981	k	2	1	1
1	1	0.8	0.6	NaN	NaN	NaN	NaN	NaN	NaN	2	1	0.8	827.562711958308	k	2	0	NaN
1	1	0.6	0.2	0.8	NaN	1	0	0	NaN	2	2	0.6	644.641041988507	k	2	0	1
0	1	0.6	0	0.6	0.8	1	0	0	0	2	3	0.6	742.279888014309	j	1	0	1
0	1	0.6	1	0.6	0.6	0	0	0	0	2	4	0.6	550.630304031074	j	1	0	1
1	2	0.2	0.4	NaN	NaN	NaN	4	1	NaN	2	5	NaN	NaN	NaN	NaN	NaN	NaN
0	2	1	0	NaN	0.6	1	0	0	1	2	6	1	675.180103979073	k	2	0	0
1	1	-0	0.6	0.6	0.6	0	2	1	0	2	7	-0	994.295282987878	k	2	0	NaN
1	1	0.2	0.6	-0	1	1	0	0	1	2	8	NaN	NaN	NaN	NaN	NaN	0
0	1	0.6	0.6	NaN	-0	1	0	0	0	2	9	0.6	598.54403801728	j	1	1	0
1	1	0.8	0.6	0.6	NaN	0	0	0	0	2	10	0.6	526.828388974536	j	1	1	1
1	2	0.8	-0	1	NaN	1	4	1	0	2	11	0.8	943.917625991162	j	1	0	1
1	2	0.6	0.4	0.8	0.6	0	0	0	1	2	12	0.6	466.663694998715	j	1	0	1
1	1	0	0.4	0.6	0.6	1	2	1	0	2	13	0.4	570.39964501746	j	1	1	1
0	2	0.2	0.8	0.6	0.8	0	1	1	0	2	14	0.2	500.285201997031	k	2	0	1
0	1	0	0.6	0.4	0.6	1	1	1	1	2	15	0	694.772535003722	j	1	0	0
0	1	0.4	0.2	0	0.2	0	0	0	1	2	16	0.2	856.456886976957	k	2	1	0
1	2	0	0.4	0.2	0.4	1	2	1	1	2	17	0	624.180587008595	k	2	0	1
1	1	0	0.6	0.2	0	0	1	1	0	2	18	0.6	696.951135003474	k	2	1	1
0	2	0.6	1	0	0.2	1	1	1	1	2	19	1	643.835999944713	k	2	1	0
0	1	0.4	0.4	0.6	0	1	1	1	1	2	20	0.4	820.895012991969	k	2	0	0
1	2	0.6	0.4	1	0.6	0	1	1	1	2	21	0.4	560.078453971073	k	2	1	1
0	2	0.4	0.6	0.4	0.4	1	0	0	1	2	22	0.6	534.226027957629	j	1	1	1
0	2	0.6	0.4	0.6	0.4	1	0	0	0	2	23	0.4	474.136037984863	k	2	1	1
0	2	0.8	0.2	0.4	0.6	0	0	0	0	2	24	0.2	457.941326021682	j	1	1	1
1	1	0.4	0.6	0.4	1	0	4	1	1	2	25	0.6	548.056378029287	k	2	1	0
0	2	0.8	0.8	0.2	0.4	0	1	1	0	2	26	0.8	549.298460013233	k	2	1	1
0	1	0.2	0.8	0.6	0.2	1	1	1	1	2	27	0.8	462.415130983572	k	2	1	1
0	2	0.6	0.4	0.8	0.6	1	1	1	1	2	28	0.4	808.062442985829	k	2	1	1
1	1	-0	0.6	0.8	0.8	0	1	1	1	2	29	0.6	522.219008009415	k	2	1	1
1	2	0	0.4	0.4	0.8	0	1	1	1	2	30	0.4	402.210108994041	k	2	1	1
1	2	0.2	0.6	0.4	0.6	1	0	0	1	2	31	0.2	451.01182104554	j	1	0	0
0	2	1	0.4	0.2	0.4	0	0	0	0	2	32	1	492.145535012241	j	1	0	1
0	1	0.2	1	0.6	0.4	1	3	1	1	2	33	0.2	799.622478021774	j	1	0	0
0	1	0.4	0.4	0.2	1	0	0	0	1	2	34	0.4	617.073420027737	k	2	0	1
1	1	0.2	0.8	0.4	0.2	0	0	0	0	2	35	0.2	519.992635003291	j	1	0	1
0	2	0.2	0.2	1	0.2	1	3	1	0	2	36	0.2	522.957505017985	k	2	0	1
0	1	0.6	0.6	0.2	0.4	1	1	1	0	2	37	0.6	723.88178302208	k	2	1	0
1	1	0.4	0.6	0.6	0.2	0	0	0	1	2	38	0.6	596.466115966905	j	1	1	1
1	1	0.2	0.4	0.6	0.6	1	0	0	0	2	39	0.4	519.895801960956	j	1	1	1
0	2	0.6	0.2	0.2	0.2	0	3	1	1	2	40	0.2	736.479273997247	j	1	1	0
1	2	0.6	0.8	0.2	0.4	0	0	0	1	2	41	0.6	545.846534019802	j	1	0	0
0	2	-0	0.6	0.6	0.2	1	0	0	0	2	42	-0	690.97936101025	k	2	0	1
1	2	0	0	-0	0.6	0	0	0	0	2	43	0	556.657093984541	k	2	0	1
0	2	0.4	0.4	0	-0	1	0	0	0	2	44	0.4	718.646807014011	k	2	1	0
1	1	0.6	0.6	0.4	0.6	1	5	1	0	2	45	0.6	616.070957970805	j	1	1	1
1	2	0.2	0.4	0.4	0	1	1	1	0	2	46	0.2	615.593242982868	j	1	0	0
0	2	-0	0.6	0.2	0.6	1	0	0	1	2	47	0.6	706.376023008488	k	2	1	0
0	1	0.2	-0	0.6	0.4	1	2	1	1	2	48	0.2	515.399965981487	k	2	0	0
1	2	0.8	0.6	0.6	0.2	0	1	1	0	2	49	0.8	731.04785796022	k	2	0	0
1	2	0	0.6	0.8	0.2	1	0	0	1	2	50	0	468.792858999223	k	2	0	1
0	2	0.2	0	0	0.8	0	0	0	0	2	51	0	422.709234000649	j	1	1	0
1	1	0.4	0.4	0.2	0.6	0	3	1	1	2	52	0.4	672.559508006088	k	2	0	1
0	1	0.6	0.2	0.4	0	1	0	0	1	2	53	0.2	832.579571986571	j	1	1	0
0	2	-0	0.2	0	0	1	2	1	0	2	54	-0	497.781079960987	k	2	0	NaN
1	1	0.6	0	0.2	0.4	0	1	1	0	2	55	0	595.631923002657	j	1	1	1
1	2	-0	0.4	-0	0.2	1	1	1	1	2	56	NaN	NaN	NaN	NaN	NaN	0
1	1	0.6	0	0	-0	1	1	1	1	2	57	0.6	525.0882509863	k	2	0	0
0	1	1	0.4	0.6	NaN	1	0	0	1	2	58	1	671.861534006894	j	1	0	1
1	1	0.4	0.6	1	0.6	0	0	0	0	2	59	0.4	489.338147977833	j	1	0	1
1	1	0.8	0.8	0.4	1	1	0	0	0	2	60	0.8	546.891577017959	k	2	0	1
0	1	1	0	0.8	0.4	1	0	0	0	2	61	1	611.857859999873	k	2	0	1
1	2	0.2	0.2	NaN	0	0	5	1	1	2	62	0.2	709.675039979629	k	2	1	0
0	2	0.4	-0	0.2	1	1	0	0	1	2	63	-0	679.815731011331	j	1	1	1
0	2	0.8	0.6	-0	0.2	1	0	0	0	2	64	0.8	681.191159004811	j	1	0	0
0	1	0.6	-0	1	0.8	0	3	1	0	2	65	0.6	474.747474014293	k	2	0	1
1	1	0.6	0.4	0.6	0.8	0	0	0	1	2	66	0.6	642.779030022211	j	1	0	1
0	2	0.2	-0	0.8	-0	0	2	1	0	2	67	0.2	669.083426997531	k	2	0	1
0	2	0.6	0.4	0.2	0.6	0	0	0	1	2	68	0.6	411.79944598116	j	1	0	1
0	1	0.8	0	0.6	0.6	1	2	1	0	2	69	0.8	479.276900994591	k	2	0	1
1	1	0.6	0.2	0.8	0.6	0	0	0	1	2	70	0.6	735.398361983243	j	1	0	1
0	1	0.6	1	0.6	0.8	1	0	0	0	2	71	0.6	448.776394012384	k	2	0	1
0	2	0.6	0.2	0.6	0.2	1	3	1	0	2	72	0.6	665.544447023422	k	2	0	1
0	2	0.8	0.4	0.6	0.6	0	0	0	1	2	73	0.8	483.169536979403	j	1	0	1
1	2	0.6	0.4	0.8	0.6	1	0	0	0	2	74	0.6	398.057172016706	j	1	0	1
1	1	0.8	0.8	0.6	0.6	0	3	1	0	2	75	0.8	503.655321022961	k	2	0	1
1	1	0.4	0	0.8	0.6	1	0	0	1	2	76	0.4	392.535214021336	k	2	0	1
0	2	0.6	1	0.6	0.8	0	2	1	0	2	77	0.6	427.627581986599	j	1	0	1
0	2	0.8	0	0.6	0.4	1	0	0	1	2	78	0.8	483.423054043669	k	2	0	1
0	1	0.2	0.4	0.4	0.8	1	2	1	0	2	79	0.4	525.827502016909	k	2	1	0
0	1	-0	0.2	0.4	0.8	0	0	0	1	2	80	-0	471.278193988837	j	1	0	0
1	1	0.4	0.6	-0	0.4	0	0	0	0	2	81	0.6	488.15997102065	k	2	1	0
0	2	0.4	0.4	0.8	0.6	1	3	1	0	2	82	0.4	775.306635012385	k	2	0	1
1	1	0.2	0.8	0.6	-0	1	1	1	0	2	83	0.8	474.382273037918	k	2	1	1
1	2	0.8	1	0.4	0.6	0	1	1	1	2	84	1	505.986197036691	j	1	1	0
1	1	0	0.4	0.8	0.4	1	1	1	1	2	85	0.4	484.305722988211	k	2	1	1
1	2	1	0	1	0.8	0	1	1	1	2	86	0	638.917644973844	j	1	1	1
0	1	0	0.8	0.4	1	1	1	1	1	2	87	0	416.490924020763	j	1	0	0
0	1	0.6	0.8	0	0	0	0	0	1	2	88	0.6	616.574632003903	k	2	0	1
0	2	1	0.4	0	0.4	1	2	1	1	2	89	0.4	577.249024994671	j	1	1	1
1	1	0.8	0.6	0.6	0	0	1	1	0	2	90	0.8	770.644219010137	j	1	0	1
0	2	0.2	0.4	0.4	0.6	1	1	1	1	2	91	0.2	646.146241982933	j	1	0	0
1	1	0.6	0.2	0.8	0.4	1	1	1	1	2	92	0.2	576.061440980993	j	1	1	0
1	2	0.8	0.4	0.2	0.8	1	1	1	1	2	93	0.4	616.313039965462	j	1	1	0
1	1	0.4	0.4	0.2	0.2	1	1	1	1	2	94	0.4	435.100736969616	k	2	0	0
0	1	0.2	-0	0.4	0.4	1	0	0	1	2	95	0.2	971.393199986778	j	1	0	1
1	2	0.4	0.4	0.4	0.2	0	2	1	1	2	96	0.4	997.19309899956	k	2	1	1
1	1	0.2	0.6	0.2	0.4	0	1	1	0	2	97	0.6	702.365768025629	j	1	1	0
0	2	0.4	0	0.4	0.2	0	1	1	1	2	98	0	696.997141989414	k	2	1	1
1	1	0	0.6	0.6	0.4	1	1	1	1	2	99	0.6	832.96051400248	k	2	1	1
0	2	0.6	0.8	0	0.6	1	1	1	1	2	100	0.6	450.876097020227	j	1	0	0
1	1	0.8	0	0.6	0	1	1	1	1	2	101	0	564.725712989457	j	1	1	1
0	1	0.4	0	0	0.6	1	0	0	1	2	102	0.4	575.880591000896	j	1	0	0
0	1	0.2	0.2	0.4	0	0	0	0	0	2	103	0.2	768.457681988366	j	1	0	1
0	1	1	0.2	0.2	0.4	0	0	0	0	2	104	1	353.032347979024	j	1	0	1
0	1	0.8	0.2	1	0.2	0	0	0	0	2	105	0.8	602.53745195223	k	2	0	1
1	2	0.6	0.4	0.6	0.6	1	5	1	1	2	106	0.6	362.309877004009	j	1	0	1
1	1	0.6	0.2	0.8	1	0	1	1	0	2	107	0.6	485.586208000313	j	1	0	1
0	2	0.6	1	0.6	0.8	1	1	1	1	2	108	0.6	485.322339984123	j	1	0	1
1	2	0.4	1	0.6	0.6	0	0	0	1	2	109	0.4	551.617369987071	k	2	0	1
1	2	1	1	0.4	0.6	1	0	0	0	2	110	1	511.60190498922	k	2	0	1
1	2	0.2	1	1	0.4	1	0	0	0	2	111	0.2	506.686042004731	k	2	0	1
1	1	0.4	0	0.6	0.6	1	4	1	1	2	112	0.4	786.280822008848	j	1	0	1
0	2	0.4	0.8	0.2	1	1	1	1	0	2	113	0.4	451.457507966552	k	2	0	1
1	1	0.2	0.8	0.4	0.2	1	1	1	1	2	114	0.2	383.298749977257	j	1	0	1
1	1	1	0.4	0.2	0.4	1	0	0	1	2	115	1	384.525158035103	j	1	0	1
1	1	0.4	0.2	1	0.2	1	0	0	0	2	116	0.4	520.01979801571	k	2	0	1
1	1	0.8	0	0.4	1	1	0	0	0	2	117	0.8	402.640128973871	k	2	0	1
0	2	0.6	0.8	0.4	0.4	0	4	1	1	2	118	0.6	412.984752038028	j	1	0	1
1	1	0.6	0.8	0.8	0.4	1	1	1	0	2	119	0.6	532.862976018805	j	1	0	1
0	1	0.4	0.4	0.6	0.6	1	0	0	1	2	120	0.4	437.464379996527	j	1	0	1
0	2	0	0.4	0.6	0.8	0	2	1	1	2	121	0.4	943.4224999859	j	1	1	0
0	2	0.2	1	0.4	0.4	0	0	0	1	2	122	0.2	472.186364000663	j	1	0	0
0	2	0.2	0.4	0.2	0.4	0	0	0	0	2	123	0.4	569.327089004219	j	1	1	0
0	2	0.4	0.6	0.4	0.2	1	0	0	0	2	124	0.4	601.647261995822	k	2	0	0
1	1	0.6	0.6	0.4	0.6	0	4	1	0	2	125	0.6	708.167303004302	k	2	0	1
1	2	0	0.8	0.4	0.4	1	1	1	0	2	126	0.8	750.225167023018	j	1	1	0
1	2	-0	0	0.8	0.6	1	0	0	1	2	127	0	455.749646003824	j	1	1	1
1	1	0.2	0.6	0.6	0.4	1	2	1	1	2	128	0.2	626.256323012058	k	2	0	1
0	2	0	0.4	0	0.8	1	1	1	0	2	129	0.4	640.730846964289	j	1	1	1
0	2	-0	0	0.4	0.2	1	0	0	1	2	130	-0	460.009705973789	j	1	0	0
0	1	0	0.4	0.2	0	1	2	1	1	2	131	0	714.976623014081	j	1	0	1
1	2	0.2	0.4	-0	0.4	1	1	1	0	2	132	0.4	655.839461018331	k	2	1	0
1	1	0.6	0.4	0	-0	0	1	1	1	2	133	0.4	783.346800017171	k	2	1	0
0	1	0	0.4	0.4	0.4	1	0	0	1	2	134	0.4	544.57252996508	k	2	1	1
0	2	0.2	0.6	0.4	0	1	2	1	1	2	135	0.6	736.378344998229	k	2	1	1
0	1	0.4	1	0.4	0.4	0	1	1	0	2	136	1	610.620777006261	j	1	1	1
0	2	-0	0.4	0.6	0.4	0	1	1	1	2	137	0.4	661.617219971959	j	1	1	1
0	1	0.4	0.4	1	0.6	0	1	1	1	2	138	0.4	655.357745999936	k	2	1	1
0	2	0.8	0.2	0.4	1	1	1	1	1	2	139	0.2	383.321125002112	j	1	1	1
1	2	-0	0.8	0.2	0.4	1	0	0	1	2	140	0.8	489.356215985026	k	2	1	1
1	2	0.4	0	0.8	0.2	0	0	0	0	2	141	0	841.17634803988	k	2	1	1
1	2	0.6	0.6	0	0.8	1	0	0	0	2	142	0.6	482.863260025624	j	1	1	1
1	2	0.2	0.4	0.6	0	0	0	0	0	2	143	0.4	531.461074016988	j	1	1	1
0	1	0.4	0.2	0.4	0.4	0	5	1	1	2	144	0.4	615.952659980394	j	1	0	0
1	1	1	0.4	0.4	0.4	0	0	0	1	2	145	1	726.408754999284	k	2	0	1
0	2	0.4	0	0.4	0.6	0	2	1	0	2	146	0	426.562171953265	j	1	1	1
1	2	0	0.4	0	1	0	0	0	1	2	147	0	505.918581038713	j	1	0	0
0	2	0.2	0.8	0	0	0	0	0	0	2	148	0.8	675.507962005213	k	2	1	0
0	2	0.2	1	0.8	0	1	0	0	0	2	149	1	589.126104023308	j	1	1	1
0	2	0.6	0	1	0.8	1	0	0	0	2	150	0	358.180842013098	j	1	1	1
1	1	0	0.6	1	0.4	1	5	1	0	2	151	0.6	607.921967981383	j	1	1	0
1	2	0	0.4	0	1	1	1	1	0	2	152	0.4	873.402820026968	k	2	1	1
0	2	0.4	0.2	0.4	0.6	1	0	0	1	2	153	0.2	475.339227006771	j	1	1	1
1	1	0.4	0.6	0.6	0	1	2	1	1	2	154	0.6	538.003319001291	j	1	1	1
1	1	0.4	0.6	0.6	0.2	1	0	0	1	2	155	0.6	373.101432982367	j	1	1	1
1	2	0.4	0.4	0.2	0.4	0	2	1	0	2	156	0.4	847.74793300312	j	1	1	1
0	1	-0	0.6	0.6	0.6	1	1	1	0	2	157	0.6	521.407482970972	j	1	1	1
1	2	0.4	0.6	0.4	0.6	1	1	1	1	2	158	0.6	583.863411971834	j	1	1	1
1	1	0.8	0.4	0.6	0.4	0	1	1	1	2	159	0.4	507.917317969259	j	1	1	1
0	1	0.4	0.2	0.4	0.6	1	0	0	1	2	160	0.2	509.046245948412	j	1	1	1
0	2	0	0.6	0.6	0.6	0	2	1	1	2	161	0.6	843.386463006027	k	2	1	1
1	1	0.6	0	0.2	0.4	0	1	1	0	2	162	0	541.462101973593	k	2	1	1
1	2	-0	0.4	0.6	0.2	1	1	1	1	2	163	0.4	687.286035972647	j	1	1	1
0	2	0.6	0.8	0.4	0	1	0	0	1	2	164	0.8	682.754039007705	k	2	1	1
1	1	0.4	0	0	0.6	1	2	1	1	2	165	0.4	972.206172009464	k	2	0	0
1	1	0.6	0	0.4	0.8	1	0	0	1	2	166	0.6	498.037283017766	k	2	0	1
0	1	0.4	0.6	0.6	0.4	1	0	0	0	2	167	0.4	501.89799797954	k	2	0	1
0	1	0.6	0.6	0.4	0.6	0	0	0	0	2	168	0.6	437.395192042459	j	1	0	1
1	2	0.6	0.2	0.8	0.4	1	4	1	0	2	169	0.2	928.925366955809	k	2	1	1
0	1	0.6	0.2	0.6	0.4	0	1	1	0	2	170	0.6	689.898159005679	j	1	0	1
1	1	0	0.2	0.6	0.2	0	0	0	1	2	171	0	498.846157046501	j	1	0	1
1	1	0	0.6	0	0.6	1	0	0	0	2	172	0	746.899985009804	k	2	0	1
1	1	0	0.2	0	0	1	0	0	0	2	173	0.2	342.161154025234	j	1	1	0
1	1	0.6	0.4	0.2	0	1	0	0	0	2	174	0.4	373.874042998068	j	1	1	1
1	2	0.6	0.4	0.2	0.6	0	5	1	1	2	175	0.6	854.938138974831	k	2	0	0
1	1	0.6	0.6	0.4	0.2	1	1	1	0	2	176	0.6	808.878535986878	k	2	0	0
1	2	0.4	0.2	0.6	0.4	0	1	1	1	2	177	0.4	921.466409985442	j	1	0	1
0	1	0.8	1	0.6	0.6	1	1	1	1	2	178	0.8	732.534329988994	j	1	0	1
0	2	1	0.2	0.4	0.6	0	1	1	1	2	179	1	502.538312051911	j	1	0	1
1	2	0.6	0.6	1	0.8	1	0	0	1	2	180	0.6	493.578379973769	k	2	0	1
0	1	0.4	0.4	0.8	0.4	0	2	1	1	2	181	0.4	422.210535034537	j	1	1	0
0	1	0	0.4	0.4	0.6	0	0	0	1	2	182	0.4	503.291420987807	k	2	1	1
1	1	0.6	1	0.4	0.4	0	0	0	0	2	183	1	465.747823996935	j	1	1	1
1	2	0.8	0.6	0.6	1	1	3	1	0	2	184	0.6	832.879121007863	j	1	1	0
0	2	1	0.4	0.6	1	1	0	0	1	2	185	0.4	499.268829007633	k	2	1	1
0	1	0.8	0.8	1	0.4	1	2	1	0	2	186	0.8	724.998876976315	k	2	1	1
1	1	-0	0.4	0.8	0.4	0	0	0	1	2	187	0.4	494.118597009219	j	1	1	1
0	2	1	0.6	0.4	0.6	1	2	1	0	2	188	0.6	549.992985033896	k	2	1	1
0	2	0.6	-0	0.6	0.4	1	0	0	1	2	189	-0	489.275589992758	k	2	1	1
1	1	0.6	0.8	0.4	0.8	1	2	1	0	2	190	0.8	480.511756963097	k	2	1	1
1	2	0.4	0	-0	0.6	0	1	1	0	2	191	0	419.628850999288	j	1	1	1
1	2	0.4	0	0	0.8	0	0	0	1	2	192	0.4	518.04065995384	k	2	0	0
0	1	0.6	0.4	0.8	-0	1	2	1	1	2	193	0.4	661.478776950389	j	1	1	1
1	2	1	0.4	0.4	0	0	1	1	0	2	194	1	399.25628900528	k	2	0	1
0	1	0.2	1	0.4	0.4	0	1	1	1	2	195	1	802.456100005656	k	2	1	1
0	2	1	0.4	1	0.4	1	1	1	1	2	196	1	721.606178965885	k	2	0	1
0	1	0.6	0.4	1	1	0	1	1	1	2	197	0.4	641.515422961675	k	2	1	1
1	1	0.8	0.6	0.4	1	0	0	0	1	2	198	0.6	499.992541968822	j	1	1	1
0	1	0.8	0.2	0.6	0.4	1	0	0	0	2	199	0.2	469.632385997102	k	2	1	1
1	1	1	0.6	0.2	0.6	0	0	0	0	2	200	0.6	349.886609008536	j	1	1	1
1	2	-0	0.6	1	1	0	4	1	1	2	201	0.6	729.754744970705	k	2	1	0
0	2	0.8	0.6	0.6	0.6	1	0	0	1	2	202	0.6	386.75595499808	k	2	1	1
0	2	0.6	1	0.6	0.6	1	0	0	0	2	203	1	403.570430004038	k	2	1	1
0	1	0.4	0	0.6	0.2	1	3	1	0	2	204	0	669.082138978411	j	1	1	1
1	1	1	0.4	0	1	0	0	0	1	2	205	1	487.488897982985	k	2	0	0
1	1	0.4	0.4	1	0	1	0	0	0	2	206	0.4	368.36551403394	j	1	0	1
1	2	0	0.6	1	0.6	0	3	1	0	2	207	0.6	599.843198957387	k	2	1	1
0	1	0	0.2	0.4	1	1	1	1	0	2	208	0	755.448563955724	k	2	0	1
0	2	0	0.6	0.6	0.4	0	1	1	1	2	209	0.6	929.518354008906	j	1	1	1
0	2	0.2	-0	0.6	0	0	0	0	1	2	210	-0	902.027803007513	k	2	1	1
0	1	1	0.4	0	0.6	0	2	1	1	2	211	0.4	572.848496027291	k	2	1	0
1	1	1	0.2	0.4	-0	0	0	0	1	2	212	0.2	593.282585032284	k	2	1	1
1	1	-0	0.4	0.2	0.4	1	0	0	0	2	213	0.4	496.149163984228	j	1	1	1
0	2	0.2	-0	-0	0.6	1	3	1	0	2	214	0.2	705.301231995691	k	2	0	0
1	2	0	0	0.2	0.4	0	0	0	1	2	215	0	516.034072032198	j	1	0	1
1	1	0.2	0.8	0.4	0.2	1	2	1	0	2	216	0.8	443.694113986567	j	1	1	1
1	2	0.2	0.4	0	0.2	1	1	1	0	2	217	0.4	879.280214023311	k	2	1	0
0	2	0.4	0.4	0.4	0.8	0	0	0	1	2	218	0.4	638.008998997975	k	2	1	1
0	1	0.4	0.6	0.8	0	1	2	1	1	2	219	0.6	591.68618300464	k	2	1	1
1	1	0.4	0.6	0.6	0.4	0	0	0	1	2	220	0.6	531.716457975563	j	1	1	1
0	2	0.8	0	0.4	0.4	1	2	1	0	2	221	0	763.309739006218	k	2	1	1
1	2	0.6	0.2	0	0.6	1	0	0	1	2	222	0.6	366.325971030165	j	1	0	NaN
0	1	0	0.6	0.6	0.6	1	2	1	0	2	223	0.6	757.335172966123	j	1	1	1
0	1	0	0.6	0.6	0.6	0	0	0	1	2	224	0.6	920.600068988279	k	2	1	1
0	2	0.6	0	0.6	0	0	2	1	0	2	225	NaN	NaN	NaN	NaN	NaN	0
1	1	0.2	1	0.6	0.6	0	1	1	0	2	226	1	441.303843981586	k	2	1	1
1	2	0.8	0	NaN	0.6	0	1	1	1	2	227	0	837.2085490264	k	2	1	NaN
1	1	0	0.6	1	NaN	1	1	1	1	2	228	0.6	436.454662994947	j	1	1	1
1	2	0.4	0	0	1	1	1	1	1	2	229	NaN	NaN	NaN	NaN	NaN	0
0	2	0.6	0.6	NaN	0.6	1	0	0	1	2	230	0.6	375.001452979632	j	1	0	0
1	1	0	0.8	0.6	0	1	2	1	1	2	231	0.8	546.458508993965	j	1	1	1
0	2	0.2	0.4	0.6	NaN	1	1	1	0	2	232	0.2	441.800753003918	j	1	0	1
0	1	0	0.4	0.8	0.6	1	1	1	1	2	233	0.4	362.506974022835	j	1	1	1
0	1	0.2	0.4	0.4	0.2	0	0	0	1	2	234	0.4	350.474732986186	j	1	1	1
1	2	0.2	0.2	0.2	0.8	0	2	1	1	2	235	0.2	423.013873980381	j	1	1	0
1	2	0	0.4	0.2	0.4	1	0	0	1	2	236	0.4	367.904259008355	j	1	1	NaN
0	1	0.2	0.2	0.4	0.4	0	2	1	0	2	237	0.2	424.330495996401	j	1	1	1
0	1	0.6	0.8	0.2	0.4	0	0	0	1	2	238	0.6	601.340527005959	j	1	0	0
1	2	0	0.6	0.4	0.2	0	2	1	0	2	239	NaN	NaN	NaN	NaN	NaN	0
0	2	0.4	0.6	NaN	0.6	0	0	0	1	2	240	0.6	270.730176998768	j	1	1	0
1	1	0	0.4	0.6	0.2	0	2	1	0	2	241	0.4	317.866979981773	k	2	1	0
0	2	0.4	0.4	0.6	NaN	1	1	1	0	2	242	0.4	263.384248944931	j	1	0	0
0	2	0.2	0.8	0.4	0.4	1	0	0	1	2	243	0.2	448.605344980024	k	2	0	1
1	2	0.4	0.4	0.2	0.4	1	0	0	0	2	244	0.4	650.084248976782	j	1	1	0
1	2	0.8	0.6	0.4	0.2	0	0	0	0	2	245	0.8	428.374802984763	j	1	0	0
1	1	0.2	1	0.4	0.6	1	4	1	1	2	246	0.2	758.630772994366	j	1	0	0
1	2	1	0.8	0.8	0.4	0	1	1	0	2	247	1	870.140957995318	k	2	0	1
0	2	0.8	0.2	1	0.2	0	0	0	1	2	248	0.8	390.645406034309	k	2	0	1
0	1	0	-0	0.2	0.8	1	2	1	1	2	249	-0	769.525566953234	j	1	1	0
0	1	0	0	-0	0.8	0	0	0	1	2	250	0	147.153171012178	k	2	0	0
0	2	1	0.8	0.8	1	0	2	1	0	2	251	1	388.765765994322	k	2	0	1
0	1	0.2	0.2	0	-0	0	1	1	0	2	252	0.2	764.148118963931	j	1	1	0
0	1	0.4	0.4	0.2	1	0	0	0	1	2	253	0.4	605.491585971322	j	1	1	1
1	1	1	0.4	0.4	0.2	0	0	0	0	2	254	0.4	320.195668959059	j	1	1	1
0	1	0.8	0.4	0.4	0.4	1	0	0	0	2	255	0.4	312.527687987313	j	1	1	1
1	2	0.8	0.8	1	0	1	4	1	1	2	256	0.8	530.600633006543	k	2	0	1
1	2	1	0.4	0.8	0.4	1	0	0	1	2	257	1	331.617327989079	j	1	0	1
0	1	0.6	0.2	0.4	0.4	0	2	1	0	2	258	0.2	556.607185979374	j	1	1	1
0	1	1	0.6	0.2	1	0	0	0	1	2	259	0.6	445.718859962653	j	1	1	1
0	2	0.6	0.8	1	0.8	0	2	1	0	2	260	0.6	327.720352972392	k	2	0	1
0	1	0.6	0	0.6	0.2	0	1	1	0	2	261	0	520.734285993967	j	1	1	1
0	2	1	0.8	0.6	0.6	0	1	1	1	2	262	1	505.888538027648	k	2	0	1
1	2	0.6	0	1	0	0	0	0	1	2	263	0.6	333.167563017923	k	2	0	1
0	1	0.6	0.4	0	0.6	0	2	1	1	2	264	0.4	493.467250023969	j	1	1	1
1	2	0.6	0.8	0.6	1	0	1	1	0	2	265	0.6	485.901320003904	k	2	0	1
0	2	0.6	0.6	0.6	0.4	1	0	0	1	2	266	0.6	350.61720298836	k	2	0	1
1	1	0.4	0	0.4	0.6	0	2	1	1	2	267	0	536.637805984356	k	2	1	1
1	2	0.8	0	0.6	0.6	0	1	1	0	2	268	0.8	506.69031200232	j	1	0	1
0	2	0.2	0.2	0.8	0	0	0	0	1	2	269	0.2	484.330740000587	j	1	0	1
0	2	0.2	0.6	0.2	0.8	0	0	0	0	2	270	0.2	381.493299966678	j	1	0	1
0	1	0.6	0	0	0.6	1	3	1	1	2	271	0.6	811.990595015232	k	2	0	0
1	1	0.6	-0	0.6	0.2	0	0	0	1	2	272	0.6	366.663410968613	j	1	0	1
0	2	0.8	0	0.2	0.2	0	2	1	0	2	273	0.8	717.761140025686	k	2	0	1
0	1	0.6	-0	0.6	0.6	1	1	1	0	2	274	0.6	456.334314018022	j	1	0	1
0	2	0.8	0.4	0.8	0.6	0	1	1	1	2	275	0.8	639.903949049767	j	1	0	1
1	2	0.4	0.2	0.8	0.6	1	0	0	1	2	276	0.4	387.723341002129	j	1	0	1
1	1	0	0.2	0.6	0.8	0	2	1	1	2	277	0	596.251398965251	k	2	0	1
0	2	0.2	0.2	0.4	0.8	0	1	1	0	2	278	0.2	526.73116204096	k	2	1	0
0	2	0	-0	0.2	0	1	0	0	1	2	279	-0	517.700412019622	j	1	1	1
1	1	0.8	0.4	0	0.4	1	2	1	1	2	280	0.4	545.125151984394	j	1	1	0
0	1	0.6	0.8	0.4	-0	1	0	0	1	2	281	0.8	583.876075048465	j	1	1	1
1	2	0.8	0.2	-0	0.2	0	2	1	0	2	282	0.8	522.902314958628	j	1	0	0
1	2	0	0.2	0.8	0.8	1	0	0	1	2	283	0.2	531.391875003465	j	1	1	0
0	2	0.4	0.6	0.2	0.8	1	0	0	0	2	284	0.6	412.680125038605	k	2	1	1
1	2	0.2	0.2	0.6	0.2	0	0	0	0	2	285	0.2	589.153245033231	j	1	1	1
0	1	0.6	0.8	0.8	0.4	0	4	1	0	2	286	0.8	695.153692970052	k	2	1	1
1	1	0.6	0.4	0.8	0.2	0	0	0	1	2	287	0.4	487.583326001186	k	2	1	1
0	1	0.4	0.6	0.4	0.8	1	0	0	0	2	288	0.6	401.682698982768	k	2	1	1
1	2	1	0.6	0.2	0.6	0	3	1	0	2	289	1	673.963308974635	k	2	0	0
0	1	0.4	0.6	0.6	0.4	0	1	1	0	2	290	0.6	607.401373039465	k	2	1	1
1	2	-0	0.6	1	0.6	1	1	1	1	2	291	-0	991.785679012537	k	2	0	1
1	1	0.4	0.6	0.6	1	0	1	1	1	2	292	0.6	473.533672047779	k	2	1	1
1	2	0.8	1	-0	0.6	0	1	1	1	2	293	0.8	512.119163002353	j	1	0	1
0	1	1	0.2	0.6	-0	1	1	1	1	2	294	0.2	571.978633000981	j	1	1	1
0	2	0.4	0.8	0.8	0.6	0	1	1	1	2	295	0.4	556.288311025128	j	1	0	1
1	1	0.4	0.4	0.2	0.8	0	1	1	1	2	296	0.4	591.136506991461	j	1	1	1
1	2	0.4	0.2	0.4	0.2	1	1	1	1	2	297	0.4	846.959659014829	k	2	0	1
1	1	0.6	0.6	0.4	0.4	1	1	1	1	2	298	0.6	438.977543031797	j	1	1	1
1	2	0.2	0.8	0.4	0.4	0	1	1	1	2	299	0.8	600.29495600611	j	1	1	0
1	2	0.8	0.8	0.8	0.6	1	0	0	1	2	300	0.8	490.888701984659	j	1	1	1
0	1	0.6	0.4	0.6	0.4	1	2	1	1	2	301	0.6	556.300531025045	k	2	0	0
1	2	0.4	0.4	0.8	0.8	1	1	1	0	2	302	0.4	412.786194996443	j	1	0	0
1	1	1	0.6	0.6	0.8	0	1	1	1	2	303	0.6	632.997326028999	j	1	1	0
0	1	0.4	0.6	0.6	0.4	1	0	0	1	2	304	0.4	417.218433052767	j	1	0	0
1	2	1	1	0.4	0.6	0	2	1	1	2	305	1	440.970741969068	j	1	0	1
0	1	1	0.6	0.4	0.6	0	1	1	0	2	306	1	516.012690030038	j	1	0	1
1	2	0.4	1	1	0.4	1	1	1	1	2	307	0.4	526.754631020594	k	2	0	1
1	1	0.6	0.6	1	1	0	1	1	1	2	308	0.6	453.986468026415	j	1	0	NaN
0	2	0	0.6	0.4	1	0	1	1	1	2	309	0	509.278769022785	k	2	0	1
0	1	0.6	0.2	0.6	0.4	1	1	1	1	2	310	NaN	NaN	NaN	NaN	NaN	0
1	2	0.2	0.8	0	0.6	0	1	1	1	2	311	0.2	738.82347997278	k	2	0	1
1	2	0.4	0	0.2	NaN	1	0	0	1	2	312	0	425.581810006406	j	1	1	0
0	2	0.2	0.8	0	0.2	0	0	0	0	2	313	0.2	644.844769965857	j	1	0	0
1	1	0.8	0.6	NaN	0	0	3	1	1	2	314	0.8	621.146051038522	k	2	0	0
1	1	0.8	0	0.8	0.2	1	0	0	1	2	315	0.8	454.875677998643	k	2	0	1
1	1	0.8	0.4	0.8	0.8	1	0	0	0	2	316	0.8	519.702509045601	j	1	0	1
1	1	0.8	0.8	0.8	0.8	1	0	0	0	2	317	0.8	440.380465995986	k	2	0	1
1	2	0.6	0.6	0.2	0	1	4	1	0	2	318	0.6	522.052693006117	k	2	0	1
0	1	0.6	0.8	0.8	0.8	1	1	1	0	2	319	0.6	461.83555299649	k	2	0	1
0	1	0	0.4	0.6	0.6	0	0	0	1	2	320	0	429.1768129915	j	1	0	1
1	1	0.4	0.8	0	0.6	0	0	0	0	2	321	0.8	758.139354002196	j	1	1	NaN
1	2	0.6	0.2	0.6	0.8	1	3	1	1	2	322	0.6	553.245469985995	j	1	0	1
0	1	0.4	0.6	0.8	0	1	1	1	0	2	323	NaN	NaN	NaN	NaN	NaN	NaN
1	1	1	0.2	NaN	0.6	0	0	0	1	2	324	NaN	NaN	NaN	NaN	NaN	0
0	1	0.4	0.4	NaN	NaN	1	0	0	0	2	325	0.4	310.083992022555	k	2	0	0
0	2	1	0.4	0.6	0.8	1	3	1	1	2	326	0.4	365.835784992669	j	1	1	0
0	1	0.4	0.6	0.4	NaN	0	1	1	0	2	327	0.4	431.129521981347	j	1	0	1
0	2	0.4	0.6	0.4	0.4	1	1	1	1	2	328	0.4	375.507696007844	j	1	0	0
0	1	0.6	0.6	0.4	0.4	0	1	1	1	2	329	0.6	289.181708998512	j	1	1	0
0	1	0.6	0.2	0.6	0.4	0	0	0	1	2	330	0.2	412.547674961388	j	1	1	1
0	2	0.6	0.2	0.4	0.4	0	2	1	1	2	331	0.2	222.902673995122	j	1	1	0
0	2	0.4	0.2	0.2	0.2	0	0	0	1	2	332	0.2	285.487580986228	k	2	1	1
1	2	0.4	0	0.2	0.2	1	0	0	0	2	333	0.4	270.598188042641	j	1	0	0
1	2	0.8	0	0.4	0.2	0	0	0	0	2	334	0	495.43705501128	j	1	1	0
0	1	0.2	0	0.2	0.6	0	4	1	0	2	335	0.2	473.607244028244	j	1	0	0
0	1	0.6	0.2	0.2	0	0	0	0	1	2	336	0.6	410.402301989961	k	2	0	1
1	2	0	0.8	0	0.4	1	2	1	0	2	337	0.8	347.466118982993	j	1	1	1
0	2	1	0.4	0.8	0.6	0	0	0	1	2	338	0.4	517.544565023854	k	2	1	1
0	1	0.4	0.2	0.6	0.2	0	2	1	0	2	339	0.4	453.770104038995	j	1	0	1
1	2	0.2	0.6	0.4	0.8	0	1	1	0	2	340	0.2	472.464130958542	j	1	0	0
0	1	0.8	0.2	0.4	0.4	0	1	1	1	2	341	0.8	560.42220100062	j	1	0	1
1	1	0.6	0.6	0.8	0.2	0	0	0	1	2	342	0.6	467.124281043652	j	1	0	1
0	1	0.4	0.4	0.6	0.8	1	0	0	0	2	343	0.4	405.663207988255	j	1	0	1
1	2	0.6	0	0.2	0.4	0	3	1	1	2	344	0.6	854.885889973957	j	1	0	1
1	2	0	0.8	0.6	0.4	0	0	0	1	2	345	0	393.064368981868	j	1	0	1
1	2	0.4	1	0	0.6	0	0	0	0	2	346	1	560.860575002152	j	1	1	0
1	2	0.4	0.4	1	0	0	0	0	0	2	347	0.4	432.821411988698	j	1	0	0
1	2	0.8	0.4	0.4	1	0	0	0	0	2	348	0.4	347.332693985663	j	1	1	0
1	1	0.4	1	0.4	0.6	0	5	1	0	2	349	1	836.363183974754	j	1	1	0
1	2	0.2	0.6	0.4	0.4	0	1	1	0	2	350	0.6	582.724388979841	j	1	1	1
0	2	0.4	0.6	0.6	1	1	0	0	1	2	351	0.6	494.241642998531	k	2	1	1
1	2	0.8	0	0.6	0.6	0	0	0	0	2	352	0	945.109470980242	k	2	1	1
0	1	0.6	1	1	0.4	1	3	1	1	2	353	0.6	426.633347989991	j	1	0	0
0	1	0.2	0.6	0.6	0	0	0	0	1	2	354	0.2	393.898647977039	j	1	0	1
0	2	0.6	0	0	0.6	1	2	1	0	2	355	0	524.843202962074	j	1	1	1
0	2	0.4	0.2	0	0.2	0	0	0	1	2	356	0.2	5.18197001656517	j	1	1	1
1	2	0.2	0	0.2	0	0	0	0	0	2	357	0	302.160673018079	j	1	1	1
0	1	0.4	0.4	0.2	0.6	0	3	1	0	2	358	0.4	457.0843190304	j	1	0	1
1	1	0	0.8	0.4	0	0	0	0	1	2	359	0.8	539.130382996518	j	1	1	0
0	2	0.4	0	0	0.2	0	2	1	0	2	360	0	521.856057981495	j	1	1	1
1	1	0.6	0.8	NaN	NaN	NaN	NaN	NaN	NaN	3	1	0.6	719.910568092018	k	2	0	NaN
1	1	0.2	0.2	0.6	NaN	1	0	0	NaN	3	2	0.2	768.423274857923	k	2	0	1
1	2	0.4	0.2	NaN	NaN	NaN	2	1	NaN	3	3	0.4	466.121156001464	j	1	0	NaN
1	2	0.4	1	0.4	0.2	1	0	0	1	3	4	1	501.841227989644	k	2	1	0
0	2	-0	1	1	0.4	1	0	0	0	3	5	-0	901.678998954594	j	1	0	0
1	2	0.6	0.2	-0	1	1	0	0	0	3	6	0.2	448.359365109354	k	2	1	0
1	1	0	0.8	0.2	0.6	1	4	1	0	3	7	0	895.22062195465	j	1	0	1
0	1	0	1	0	0.2	1	0	0	1	3	8	0	456.404174212366	j	1	0	1
1	2	0.4	1	0.2	-0	0	2	1	0	3	9	1	731.698404066265	k	2	1	1
1	1	0.6	0.8	0	0	0	1	1	0	3	10	0.8	579.374887049198	j	1	1	0
0	2	0.4	0.4	1	0	1	1	1	1	3	11	0.4	468.931153882295	k	2	1	1
1	1	0.2	0.6	0.8	1	1	1	1	1	3	12	0.2	797.888833098114	k	2	0	0
0	2	0	0.8	0.4	0.8	1	1	1	1	3	13	0	529.526254162192	j	1	0	0
1	1	0	1	0.2	0.4	1	1	1	1	3	14	0	624.48094994761	k	2	0	1
0	1	0	0.8	0	0	1	0	0	1	3	15	0.8	541.324126068503	j	1	1	0
1	1	0.2	0.4	0.8	0	0	0	0	0	3	16	0.4	659.556253813207	j	1	1	1
0	2	0	0.6	0	0.2	1	3	1	1	3	17	0.6	422.698959009722	k	2	1	0
0	1	0	0.8	0.4	0.8	1	1	1	0	3	18	0	637.28553103283	j	1	0	0
0	2	0.4	1	0.6	0.4	0	1	1	1	3	19	1	736.628214130178	j	1	1	1
1	2	0.4	0.6	1	0	1	0	0	1	3	20	0.6	848.661088151857	k	2	1	1
1	1	0.2	0.2	0	0.6	0	2	1	1	3	21	0.2	491.990206064656	j	1	1	0
0	2	0.4	0.6	0.6	1	0	1	1	0	3	22	0.6	723.133830120787	j	1	1	1
0	1	0	0.4	0.2	0.6	1	1	1	1	3	23	0.4	639.235119102523	k	2	1	1
1	1	0.6	-0	0.4	0.6	0	0	0	1	3	24	-0	663.661275990307	j	1	1	1
1	1	0.4	0.8	-0	0.4	1	0	0	0	3	25	0.8	545.2065479476	k	2	1	1
1	2	0.6	0.8	0.6	0.2	1	3	1	1	3	26	0.8	529.065262991935	k	2	1	1
1	2	0.4	1	0.8	0.8	0	0	0	1	3	27	1	596.72881080769	j	1	1	1
1	1	0.6	0.6	0.8	-0	1	2	1	0	3	28	0.6	445.877613034099	k	2	1	1
0	2	0.4	0.8	1	0.8	1	1	1	0	3	29	0.8	543.492736993358	j	1	1	1
1	1	0.2	0.4	0.6	1	1	1	1	1	3	30	0.4	781.836502021179	k	2	1	1
0	2	0.2	0.6	0.8	0.6	1	1	1	1	3	31	0.6	600.142614915967	k	2	1	1
0	2	0.6	0.4	0.6	0.4	1	0	0	1	3	32	0.4	523.434805916622	j	1	1	1
1	2	0.6	0.8	0.4	0.6	1	0	0	0	3	33	0.6	514.235734008253	j	1	0	0
0	2	0.6	0.2	0.6	0.4	1	0	0	0	3	34	0.2	668.164887931198	j	1	1	0
1	2	0.4	0.4	0.2	0.6	0	0	0	0	3	35	0.4	420.386847108603	j	1	1	1
1	1	0.4	0.2	0.4	0.8	1	5	1	1	3	36	0.2	734.295425005257	j	1	1	1
1	2	1	0.4	0.4	0.2	0	1	1	0	3	37	1	551.911089103669	j	1	0	0
0	1	0.8	0.6	0.2	0.4	1	1	1	1	3	38	0.8	497.06720514223	k	2	0	0
1	2	0.6	0.2	1	0.2	1	1	1	1	3	39	0.6	490.527016110718	k	2	0	1
0	1	0.8	0	0.8	1	0	1	1	1	3	40	0.8	421.583508141339	j	1	0	1
1	2	1	0.4	0.6	0.8	0	1	1	1	3	41	1	597.499724011868	k	2	0	1
1	1	0.4	0.2	0.8	0.6	0	1	1	1	3	42	0.4	461.897003930062	j	1	0	1
0	1	0.4	0	0.4	1	1	0	0	1	3	43	0.4	392.428412102163	j	1	0	1
0	1	1	0.2	0.4	0.4	0	0	0	0	3	44	1	531.191805144772	k	2	0	1
1	2	0.8	0.2	1	0.8	0	3	1	1	3	45	0.8	434.107587905601	j	1	0	1
0	2	0.8	-0	0.8	1	1	0	0	1	3	46	0.8	403.764872113243	k	2	0	1
1	1	0.2	0.2	1	0.4	0	2	1	0	3	47	0.2	471.070360857993	k	2	0	1
0	2	0.4	-0	0.8	0.8	1	1	1	0	3	48	0.4	493.965863017365	j	1	0	1
1	1	1	0.4	0.2	0.8	1	1	1	1	3	49	1	542.416020995006	k	2	0	1
1	1	0.2	0.6	1	0.4	1	0	0	1	3	50	0.2	465.009289095178	k	2	0	1
0	2	0.2	0	0.4	0.2	1	2	1	1	3	51	0.2	533.1066979561	k	2	0	1
1	1	0.2	0.8	0.2	1	1	1	1	0	3	52	0.8	548.858704045415	j	1	1	0
0	1	0.4	0.8	0.8	0.2	1	0	0	1	3	53	0.8	422.43130505085	j	1	1	1
1	1	0	0.4	0.8	0.8	0	0	0	0	3	54	0.4	464.349864982069	j	1	1	1
0	1	0.4	0.2	0.4	0.8	1	0	0	0	3	55	0.2	456.775426166132	k	2	1	1
1	2	-0	0.8	0.2	0.2	1	4	1	1	3	56	0.8	426.886787870899	j	1	1	0
1	1	0.4	0.6	0.2	0.4	0	1	1	0	3	57	0.4	411.548021947965	j	1	0	0
1	2	0.8	0.8	0.8	0.2	0	1	1	1	3	58	0.8	749.323126859963	k	2	1	1
1	1	0	1	0.4	0.8	1	1	1	1	3	59	0	533.455794909969	k	2	0	1
1	1	0.4	1	0	0.8	1	0	0	1	3	60	1	608.910531969741	j	1	1	0
0	2	0.6	0.4	0.8	0.4	1	2	1	1	3	61	0.4	559.339704923332	k	2	1	1
0	1	-0	0.6	1	0	1	1	1	0	3	62	0.6	435.545440064743	j	1	1	1
0	2	0.2	0.2	0.4	1	0	1	1	1	3	63	0.2	701.063573127612	j	1	1	1
1	1	0.4	1	0.6	0.4	0	1	1	1	3	64	1	421.762689016759	k	2	1	1
0	1	0	0.4	1	0.2	1	0	0	1	3	65	0.4	517.315237084404	j	1	1	1
0	1	0.2	0.6	0.4	1	0	0	0	0	3	66	0.6	463.954661041498	j	1	1	1
0	1	0.2	-0	0.6	0.4	0	0	0	0	3	67	-0	368.54145093821	j	1	1	1
1	2	0.4	0.4	0.2	0.6	1	4	1	1	3	68	0.4	458.413765067235	k	2	1	1
1	2	0.6	0.4	0.4	-0	1	0	0	1	3	69	0.6	859.533059876412	k	2	0	0
0	1	0.6	0.2	-0	0.6	0	2	1	0	3	70	0.2	476.554302033037	k	2	1	1
0	1	0.6	0.8	0.2	0.6	0	0	0	1	3	71	0.6	639.825477031991	j	1	0	0
0	2	0.2	0	0.6	0.4	1	2	1	0	3	72	0.2	552.789375884458	j	1	0	1
1	2	0.6	-0	0.2	0.6	0	0	0	1	3	73	-0	375.473265070468	k	2	1	0
0	1	0.6	0	0.6	0.2	0	2	1	0	3	74	0.6	699.004726950079	j	1	0	1
0	2	0.6	0.4	-0	0.2	1	1	1	0	3	75	0.4	771.519860019907	j	1	1	1
1	2	0.4	0	0.4	0.6	0	0	0	1	3	76	0.4	350.260552018881	k	2	0	0
1	2	0.6	0.6	0.4	0.4	0	0	0	0	3	77	0.6	295.08644901216	j	1	1	0
0	1	1	0	0.6	-0	0	3	1	1	3	78	0	256.451292894781	k	2	1	0
1	2	0.6	0	0.6	0.4	0	1	1	0	3	79	0.6	512.012554099783	j	1	0	0
0	1	0.2	0	0	0.6	0	1	1	1	3	80	0.2	353.768665110692	j	1	0	0
1	2	0.8	-0	0.6	0	0	1	1	1	3	81	0.8	540.681981947273	k	2	0	1
1	2	0.8	0.2	0.8	0.2	0	0	0	1	3	82	0.8	452.728518983349	k	2	0	1
0	2	0.6	0.6	0.8	0.8	0	0	0	0	3	83	0.6	631.258261855692	j	1	0	1
1	2	0.8	1	0.6	0.8	0	0	0	0	3	84	0.8	501.776105025783	j	1	0	1
0	2	0.2	0	0.8	0.6	0	0	0	0	3	85	0.2	487.917446065694	k	2	0	1
1	1	0.8	0	0.2	0.6	0	5	1	1	3	86	0.8	609.765128931031	k	2	0	1
1	2	0.2	0.4	0.2	0.8	1	1	1	0	3	87	0.4	714.078633114696	k	2	1	0
0	1	1	0.4	0.8	0.2	1	1	1	1	3	88	1	654.141948092729	k	2	0	1
1	2	1	0.4	0.4	0.8	0	1	1	1	3	89	0.4	389.374639140442	k	2	1	1
0	2	1	0.2	0.4	1	1	0	0	1	3	90	1	574.820630019531	j	1	0	0
1	1	0.2	0.2	1	0.4	0	2	1	1	3	91	0.2	624.409946845844	j	1	1	0
1	1	1	0	0.2	1	1	0	0	1	3	92	1	607.541754841805	k	2	0	0
0	2	0.8	0	1	0.4	1	2	1	0	3	93	0.8	480.185926891863	k	2	0	1
0	2	0.6	0	0.8	1	1	0	0	1	3	94	0.6	474.015888990834	k	2	0	1
1	2	0.4	0	0.6	0.8	1	0	0	0	3	95	0.4	442.462378880009	j	1	0	1
1	1	0.4	0.4	1	0.2	1	3	1	0	3	96	0.4	477.799353888258	k	2	0	1
1	1	0.4	0.6	0.4	0.4	1	0	0	1	3	97	0.4	453.356042038649	k	2	0	1
1	2	0.4	0	0.4	0.6	0	2	1	0	3	98	0.4	649.676186032593	j	1	0	1
0	1	0.2	0.8	0.4	0.4	1	1	1	0	3	99	0.8	515.09675802663	j	1	1	0
1	1	0.4	0.4	0.8	0.4	0	0	0	1	3	100	0.4	418.251164956018	j	1	1	1
0	1	1	0	0.4	0.8	1	0	0	0	3	101	0	347.774446941912	j	1	1	1
1	1	0.6	0.2	0	0.4	0	0	0	0	3	102	0.2	467.784488108009	k	2	1	1
1	2	0.2	0.2	0.4	0.4	1	4	1	1	3	103	0.2	646.566222887486	k	2	0	1
0	1	1	0.4	0.2	0	1	1	1	0	3	104	1	447.195881977677	k	2	0	0
1	2	0.8	0	0.2	0.2	0	1	1	1	3	105	0	480.583037948236	j	1	1	0
1	2	0.6	-0	0	1	1	0	0	1	3	106	-0	378.806277178228	j	1	1	1
1	1	0.8	0.4	1	0.2	0	2	1	1	3	107	0.8	595.971327042207	k	2	0	1
0	2	0.6	0.4	-0	0	0	1	1	0	3	108	0.6	415.231208084151	k	2	0	0
0	2	0.6	0.6	0.6	0.8	1	0	0	1	3	109	0.6	453.724086983129	k	2	0	1
1	2	1	0.6	0.6	0.6	1	0	0	0	3	110	0.6	526.757525047287	k	2	1	0
1	1	0.6	0.8	0.8	-0	1	3	1	1	3	111	0.6	576.754729961976	k	2	0	1
0	1	0.6	0.2	0.6	0.6	1	0	0	1	3	112	0.6	481.814984930679	k	2	0	1
1	1	0.8	0.6	0.6	0.6	0	0	0	0	3	113	0.8	381.080189021304	k	2	0	1
1	2	0.2	0.6	0.6	0.6	0	3	1	0	3	114	0.2	452.10882415995	k	2	0	0
0	2	1	0.2	0.2	0.8	1	0	0	1	3	115	0.2	303.16180200316	j	1	1	0
0	1	0.4	0.4	0.8	0.6	1	2	1	0	3	116	0.4	527.183366939425	k	2	0	1
1	2	0.4	0	0.2	0.2	0	1	1	0	3	117	0.4	898.078462807462	k	2	0	0
0	2	0.6	0.6	0.4	0.4	0	0	0	1	3	118	0.6	569.798710057512	k	2	1	0
0	1	0.6	1	0.4	0.2	0	2	1	1	3	119	1	452.596009941772	k	2	1	0
0	1	0.4	0.6	1	0.6	0	0	0	1	3	120	0.6	469.938911963254	j	1	1	1
1	2	-0	0	0.6	0.4	0	2	1	0	3	121	-0	544.250160921365	k	2	0	0
0	1	0.2	0.8	0.6	1	0	1	1	0	3	122	0.8	462.692147120833	j	1	1	1
1	2	0.4	0.2	-0	0.6	0	1	1	1	3	123	0.2	456.681062001735	j	1	1	0
1	1	0.4	0.6	0.8	-0	0	1	1	1	3	124	0.6	500.401922967285	k	2	1	1
1	2	0.6	0.6	0.2	0.8	1	1	1	1	3	125	0.6	514.829688007012	k	2	1	1
0	1	0	0.8	0.6	0.2	1	1	1	1	3	126	0.8	327.306509017944	j	1	1	1
1	2	0.6	-0	0.6	0.6	0	1	1	1	3	127	-0	382.924788864329	k	2	1	1
0	2	0.4	0.4	-0	0.8	0	0	0	1	3	128	0.4	343.639101134613	k	2	1	1
1	2	0.4	0.2	0.4	-0	0	0	0	0	3	129	0.4	410.389502067119	k	2	0	0
0	1	0	0.4	0.8	0.6	0	3	1	1	3	130	0.4	564.088887069374	k	2	1	1
0	1	0	0.6	0.4	0.4	0	0	0	1	3	131	0.6	419.189033797011	j	1	1	1
0	2	0.8	0.2	0.4	0.4	1	2	1	0	3	132	0.8	382.625760976225	k	2	0	1
1	1	0.8	0.6	0.6	0.4	0	1	1	0	3	133	0.6	382.337522925809	k	2	1	1
1	2	0.4	0.4	0.8	0.6	0	1	1	1	3	134	0.4	431.008591782302	k	2	0	1
0	1	0.2	0.8	0.6	0.8	1	1	1	1	3	135	0.8	482.919968897477	k	2	1	1
0	2	0.8	1	0.4	0.6	1	1	1	1	3	136	0.8	417.967440094799	j	1	0	1
0	2	0.6	0.8	0.8	0.8	0	0	0	1	3	137	0.6	629.157348070294	j	1	0	1
0	2	0.6	0.6	0.6	0.8	1	0	0	0	3	138	0.6	484.21075893566	j	1	0	1
1	2	1	0.6	0.6	0.6	0	0	0	0	3	139	1	487.604311900213	k	2	0	1
1	2	0.2	1	1	0.6	1	0	0	0	3	140	0.2	583.066571038216	j	1	0	1
1	1	0.2	0.2	0.8	0.4	0	5	1	1	3	141	0.2	409.18589499779	j	1	1	1
1	2	1	1	0.2	1	0	1	1	0	3	142	1	587.894794065505	j	1	0	1
0	1	0.2	0.6	0.2	0.2	1	1	1	1	3	143	0.6	334.067495074123	j	1	1	1
1	1	0.2	0.2	0.6	1	0	0	0	1	3	144	0.2	477.49866405502	k	2	1	1
0	1	0.6	0.6	0.2	0.6	1	0	0	0	3	145	0.6	437.631767010316	k	2	0	0
1	1	0.4	0.4	0.6	0.2	0	0	0	0	3	146	0.4	407.040185993537	k	2	0	1
0	2	0.6	0.6	1	0.2	0	4	1	1	3	147	0.6	483.434831025079	k	2	0	1
0	1	0.2	1	0.4	0.6	1	1	1	0	3	148	0.2	418.954367982224	j	1	0	1
0	1	0.2	1	0.2	0.6	0	0	0	1	3	149	1	357.531702145934	k	2	1	0
1	1	0.8	0	1	0.2	0	0	0	0	3	150	0	629.029845818877	k	2	1	1
1	2	0.4	0.4	0.6	0.4	1	3	1	1	3	151	0.4	630.498863058165	k	2	1	0
0	2	0.8	0.6	0.4	0	1	0	0	1	3	152	0.8	521.897998871282	k	2	0	0
1	1	0.8	-0	0	1	1	2	1	0	3	153	-0	385.900107910857	j	1	1	1
1	1	0.4	0.2	-0	0.8	1	0	0	1	3	154	0.2	348.939342191443	k	2	1	1
1	1	0.8	0.4	0.2	-0	1	0	0	0	3	155	0.4	388.080131961033	j	1	1	1
0	2	1	0.8	0.8	0.4	1	3	1	0	3	156	1	494.328225031495	j	1	0	1
0	2	-0	1	1	0.4	1	0	0	1	3	157	-0	421.551891136914	j	1	0	1
0	1	1	0.6	0.4	0.2	1	2	1	0	3	158	1	470.674480078742	j	1	0	0
0	2	1	0.8	-0	1	0	1	1	0	3	159	1	384.315533796325	k	2	0	1
1	2	0.2	0.6	1	1	0	0	0	1	3	160	0.2	396.459803916514	j	1	0	1
1	2	-0	0.6	0.2	1	1	0	0	0	3	161	-0	427.515681833029	j	1	0	1
0	2	0.8	0.4	-0	0.2	1	0	0	0	3	162	0.8	358.865208923817	j	1	0	1
0	1	0.4	0	1	-0	0	4	1	1	3	163	0.4	584.203619975597	j	1	0	1
1	1	0.6	0.4	0.4	0.8	0	0	0	1	3	164	0.6	360.86891614832	k	2	0	1
0	2	0.4	0.2	0.8	-0	1	2	1	0	3	165	0.4	497.188222128898	j	1	0	1
1	1	0.6	0.2	0.6	0.4	1	1	1	0	3	166	0.2	348.604365019128	j	1	1	0
1	1	-0	0.8	0.2	0.4	1	0	0	1	3	167	-0	356.20223893784	k	2	0	0
0	1	0.4	0.6	-0	0.2	1	0	0	0	3	168	0.4	309.877588879317	k	2	0	1
0	2	0	0.2	0.4	0.6	0	3	1	1	3	169	0	541.945690987632	k	2	0	1
0	1	0.6	0.6	0.4	-0	0	1	1	0	3	170	0.6	345.149846980348	k	2	1	0
0	2	-0	0.6	0	0.4	0	1	1	1	3	171	0.6	337.607064982876	j	1	1	0
1	2	0	1	0.6	0.6	0	0	0	1	3	172	1	364.647808019072	k	2	1	1
1	2	0	0.2	1	0.6	0	0	0	0	3	173	0.2	453.128042863682	j	1	1	1
0	1	0.8	0.4	0.6	0	0	3	1	1	3	174	0.4	380.852953065187	j	1	1	1
0	2	0.2	0.2	0.2	1	1	1	1	0	3	175	0.2	545.417750021443	j	1	1	1
0	1	0.8	0.6	0.4	0.2	0	1	1	1	3	176	0.6	520.105987088755	k	2	1	1
1	1	0	0.4	0.6	0.2	0	0	0	1	3	177	0.4	402.964133070782	k	2	1	1
1	1	1	1	0.4	0.6	1	0	0	0	3	178	1	531.262035947293	j	1	0	0
1	2	0.6	0.2	0.2	0.4	1	3	1	1	3	179	0.6	685.457709012553	k	2	0	0
1	2	0.2	0.6	0.6	1	1	0	0	1	3	180	0.2	527.580386027694	k	2	0	1
1	2	0.4	0.6	0.2	0.6	1	0	0	0	3	181	0.6	390.832730103284	j	1	1	0
1	1	-0	0.4	1	0.4	1	3	1	0	3	182	0.4	447.326874127612	k	2	1	0
0	2	0.6	1	0.6	0.2	0	1	1	0	3	183	1	554.637901019305	k	2	1	1
1	1	0.6	0.4	0.4	0.6	1	1	1	1	3	184	0.4	499.808064894751	k	2	1	1
0	2	0.4	0.6	1	0.4	0	1	1	1	3	185	0.4	405.0659511704	k	2	0	0
0	1	0.8	0.6	0.4	1	1	1	1	1	3	186	0.8	533.063428942114	k	2	0	0
1	2	0	0.6	0.4	0.4	0	1	1	1	3	187	0	350.394245004281	k	2	0	1
0	1	0.6	0.6	0.8	0.4	0	1	1	1	3	188	0.6	543.738621054217	k	2	0	1
0	1	0.4	0	0.6	0	0	0	0	1	3	189	0.4	522.424559108913	k	2	0	1
0	2	0.2	1	0	0.8	1	2	1	1	3	190	1	577.914322027937	k	2	1	0
1	1	0.2	0.2	0.4	0.6	0	1	1	0	3	191	0.2	522.775669815019	k	2	1	0
1	1	0.4	0.2	0.2	1	1	0	0	1	3	192	0.2	470.318955136463	k	2	1	1
0	1	0.6	0.4	0.2	0.2	1	0	0	0	3	193	0.6	479.198324028403	j	1	0	0
0	2	0.4	0.8	1	0.4	1	3	1	1	3	194	0.4	439.855087082833	k	2	0	0
1	1	0.2	0.8	0.6	0.2	0	1	1	0	3	195	0.2	511.890919180587	k	2	0	1
0	1	0.8	0.4	0.2	0.4	1	0	0	1	3	196	0.8	435.513175092638	j	1	0	1
1	2	0.4	0.6	0.4	0.6	0	2	1	1	3	197	0.6	500.531142111868	j	1	1	0
0	2	0.6	0.8	0.6	0.8	1	0	0	1	3	198	0.6	454.74606892094	j	1	0	0
0	1	0.8	0.2	0.8	0.2	0	2	1	0	3	199	0.2	397.225120803341	k	2	1	0
1	1	1	0.8	0.2	0.6	0	0	0	1	3	200	1	414.458984043449	j	1	0	0
0	1	-0	0.6	1	0.2	1	0	0	0	3	201	-0	384.892913978547	j	1	0	1
0	2	0.6	0.8	0.6	0.6	0	3	1	0	3	202	0.6	473.838358884677	j	1	0	1
1	1	1	1	-0	1	0	1	1	0	3	203	1	453.784273006022	k	2	0	1
0	2	-0	-0	0.6	-0	0	1	1	1	3	204	-0	445.178923895583	j	1	0	1
0	2	0.8	0.8	-0	1	1	0	0	1	3	205	0.8	303.012724965811	j	1	0	1
0	1	0.8	0.2	1	0.6	1	2	1	1	3	206	0.8	272.733472986147	k	2	0	1
0	2	0	0.8	0.8	-0	0	1	1	0	3	207	0.8	322.611283976585	j	1	1	0
1	1	0.4	0.2	0.8	0.8	0	1	1	1	3	208	0.2	243.20594407618	k	2	1	0
0	2	0.2	1	0.8	0.8	1	1	1	1	3	209	1	299.958972027525	k	2	1	1
0	2	0.4	0.2	1	0.2	0	0	0	1	3	210	0.2	222.344727953896	j	1	1	1
1	1	1	0.2	0.2	0.8	1	2	1	1	3	211	0.2	272.04448916018	k	2	1	1
0	1	1	-0	0.2	0.2	1	0	0	1	3	212	1	289.333235938102	j	1	0	0
1	2	0.2	0.6	0.2	1	1	2	1	0	3	213	0.6	258.359762141481	j	1	1	1
1	1	0.6	0	1	0.2	0	1	1	0	3	214	0	289.876814000309	j	1	1	0
1	1	0.2	-0	0	0.6	1	0	0	1	3	215	-0	322.902173036709	j	1	1	1
0	2	0	0.8	0.6	1	1	2	1	1	3	216	0.8	285.580900963396	k	2	1	1
1	1	0.4	0.6	-0	0	1	1	1	0	3	217	0.4	528.872906928882	j	1	0	0
1	1	0.4	0.8	0.4	0.8	1	0	0	1	3	218	0.8	367.863512830809	j	1	1	0
0	1	0.2	0.4	0.8	0.4	1	0	0	0	3	219	0.4	417.542109033093	j	1	1	1
0	2	0.4	0.4	0.8	-0	0	3	1	1	3	220	0.4	553.353316849098	j	1	1	1
0	2	0.4	0.2	0.4	0.4	1	0	0	1	3	221	0.2	490.890981862321	j	1	1	1
1	1	0.6	0.8	0.4	0.8	0	2	1	0	3	222	0.6	451.584653928876	j	1	0	0
1	2	0.2	0.4	0.2	0.4	1	1	1	0	3	223	0.2	320.452331099659	k	2	0	0
0	1	0.4	0.6	0.6	0.2	1	1	1	1	3	224	0.4	439.62838104926	k	2	0	1
1	1	0.4	0	0.4	0.2	0	0	0	1	3	225	0.4	520.157235907391	k	2	0	1
0	1	0.4	1	0.4	0.4	1	0	0	0	3	226	1	345.488157123327	j	1	1	0
1	2	0.6	0.2	0.2	0.6	1	3	1	1	3	227	0.2	565.627489006147	j	1	1	0
0	2	-0	0.4	0.2	1	1	0	0	1	3	228	-0	428.279344923794	k	2	0	0
1	1	0.2	0.6	1	0.4	0	2	1	0	3	229	0.6	437.452821061015	j	1	1	1
1	2	0.2	0.8	-0	0.2	0	1	1	0	3	230	0.8	599.411315051839	j	1	1	0
0	2	0	0.4	0.8	0.6	1	0	0	1	3	231	0.4	442.809981061146	k	2	1	1
1	2	0.2	0.6	0.4	0.8	0	0	0	0	3	232	0.6	427.505696890876	j	1	1	1
0	1	0	0.6	0.6	-0	1	3	1	1	3	233	0.6	435.235186945647	j	1	1	1
1	1	0.4	0.4	0.6	0.6	0	0	0	1	3	234	0.4	534.098922042176	k	2	1	1
0	2	0.4	0	0.6	0.4	1	2	1	0	3	235	0	560.229923110455	j	1	1	1
1	1	0	0.4	0.4	0.6	1	1	1	0	3	236	0	584.093275014311	j	1	0	0
0	2	0.4	0	0	0.4	0	1	1	1	3	237	0.4	488.457676023245	k	2	0	0
0	1	0.8	0.4	0	0	1	1	1	1	3	238	0.4	625.967419939116	j	1	1	0
1	1	0	0.2	0.4	0.4	0	0	0	1	3	239	0	355.968120042235	k	2	0	0
0	2	0.4	0.2	0.4	0	1	2	1	1	3	240	0.4	445.602897088975	j	1	0	1
1	2	0.6	0.2	0.4	0	0	0	0	1	3	241	0.6	470.013397047296	j	1	0	1
1	1	0.2	0.4	0	0.4	1	2	1	0	3	242	0.4	576.888918876648	j	1	1	0
0	1	-0	0.6	0.4	0.6	1	0	0	1	3	243	0.6	416.779740946367	k	2	1	1
0	2	0.2	0.2	0.6	0.4	1	2	1	0	3	244	0.2	705.696298973635	j	1	1	0
1	2	0.6	0.4	0.2	0.6	1	0	0	1	3	245	0.6	414.097488857806	j	1	0	0
0	2	0.6	1	0.6	0.2	0	0	0	0	3	246	1	452.218140009791	j	1	1	0
0	1	0.8	0.8	0.6	0.4	0	3	1	0	3	247	0.8	408.129238057882	j	1	1	1
0	1	0.6	0.4	0.8	1	0	0	0	1	3	248	0.4	392.975382972509	j	1	1	1
0	1	0.4	0.2	0.4	0.8	0	0	0	0	3	249	0.2	321.188176050782	j	1	1	1
1	1	0.4	0.4	0.2	0.4	0	0	0	0	3	250	0.4	360.83380295895	k	2	0	0
1	2	1	0.6	1	0.6	1	4	1	0	3	251	1	468.058543046936	k	2	0	0
0	1	0.4	0.4	0.4	0.2	1	1	1	0	3	252	0.4	494.439634028822	k	2	0	1
1	2	0.8	0.4	1	0.4	1	1	1	1	3	253	0.8	440.634462982416	j	1	0	1
1	1	0.8	0.6	0.4	1	0	1	1	1	3	254	0.6	447.690662927926	k	2	1	0
0	2	1	0.4	0.8	0.4	0	1	1	1	3	255	1	466.139113996178	j	1	0	1
1	1	0.2	0.8	0.6	0.8	1	1	1	1	3	256	0.8	315.733531024307	k	2	1	1
1	2	1	0.2	1	0.6	0	1	1	1	3	257	1	396.818839944899	j	1	0	1
1	2	0.4	0.4	1	0.8	0	0	0	1	3	258	0.4	358.503855066374	k	2	1	0
1	1	0.6	0.8	0.8	1	1	2	1	1	3	259	0.8	456.362402997911	j	1	1	1
0	2	0.4	0.6	0.4	1	0	1	1	0	3	260	0.4	366.933978861198	k	2	0	0
0	1	0.2	0.2	0.8	0.4	1	1	1	1	3	261	0.2	410.497513134032	k	2	1	1
0	1	0.4	0.6	0.2	0.4	0	0	0	1	3	262	0.6	385.721646016464	j	1	1	1
0	2	0.4	-0	0.4	0.8	1	2	1	1	3	263	0.4	380.922764074057	j	1	0	1
0	1	0.4	0.6	0.6	0.2	0	1	1	0	3	264	0.6	446.033328073099	j	1	1	1
1	1	0.4	0.8	0.6	0.4	0	0	0	1	3	265	0.8	398.127355845645	j	1	1	1
1	1	0.4	0.8	0.8	0.6	1	0	0	0	3	266	0.8	351.601452101022	k	2	1	1
0	1	0.4	-0	0.8	0.8	1	0	0	0	3	267	-0	368.48267307505	k	2	1	1
0	2	1	-0	0.4	0.6	0	4	1	1	3	268	1	492.618937976658	k	2	0	1
1	2	0.2	0.4	1	-0	1	0	0	1	3	269	0.2	445.668976986781	j	1	0	1
0	1	0.2	0.6	-0	0.8	0	2	1	0	3	270	0.6	590.98180802539	j	1	1	1
1	2	0.4	0.2	0.2	1	1	1	1	0	3	271	0.4	440.870111109689	k	2	0	1
1	2	0.2	0.4	0.4	0.6	1	0	0	1	3	272	0.4	410.872121108696	j	1	1	0
0	1	0.8	0	0.6	0.2	0	2	1	1	3	273	0	469.449158059433	j	1	1	1
1	2	0.2	0.2	0.4	0.4	0	1	1	0	3	274	0.2	436.873703030869	j	1	0	0
0	2	0.4	0.6	0.2	0	0	0	0	1	3	275	0.4	502.19115591608	k	2	0	1
1	1	0.8	0.4	0	0.4	0	2	1	1	3	276	0.8	495.624940143898	j	1	0	0
1	1	0	0.2	0.8	0.4	1	0	0	1	3	277	0	514.986182097346	j	1	0	1
0	2	0.2	0.6	0.4	0.2	0	2	1	0	3	278	0.6	410.914458101615	j	1	1	0
1	1	0.6	0	0	0.8	1	1	1	0	3	279	0.6	595.123114995658	k	2	0	1
1	2	0.4	0.8	0.6	0	1	1	1	1	3	280	0.4	532.786790980026	k	2	0	0
0	1	0.6	0.6	0.6	0.6	1	1	1	1	3	281	0.6	466.05560509488	j	1	0	1
1	2	0.8	0.2	0.4	0.6	1	1	1	1	3	282	0.2	463.816468138248	j	1	1	0
0	1	0.8	0	0.6	0.4	0	1	1	1	3	283	0.8	434.518883936107	k	2	0	1
1	2	0.6	0.8	0.2	0.6	0	1	1	1	3	284	0.6	515.846907161176	k	2	0	0
0	1	0.4	0.2	0.8	0.2	0	1	1	1	3	285	0.4	380.491373129189	k	2	0	1
1	2	0	0.8	0.6	0.8	0	1	1	1	3	286	0	437.877156073228	j	1	0	1
0	1	0.2	0.6	0.4	0.6	0	1	1	1	3	287	0.2	439.676587935537	k	2	0	1
1	2	0	0.6	0	0.4	0	1	1	1	3	288	0	423.687726026401	k	2	0	1
1	1	1	0.6	0.2	0	0	1	1	1	3	289	1	480.297991074622	j	1	0	1
0	2	0	0.4	0	0.2	1	1	1	1	3	290	0.4	426.261022919789	k	2	1	0
0	1	0.2	0.4	1	0	1	1	1	1	3	291	0.2	356.787594035268	k	2	0	1
0	2	0	0.6	0.4	1	1	1	1	1	3	292	0	491.754743037745	k	2	0	0
1	2	0.4	0.8	0	0.2	1	0	0	1	3	293	0.8	717.755488120019	j	1	1	0
0	1	0.8	0	0.2	0.4	0	2	1	1	3	294	0	679.842795943841	k	2	1	0
0	1	0.4	0.6	0	0.8	0	0	0	1	3	295	0.4	480.36920488812	k	2	0	0
0	2	0	0.4	0.8	0	0	2	1	0	3	296	0.4	929.602025076747	j	1	1	1
1	1	0.6	0	0.4	0	0	1	1	0	3	297	0	676.673470064998	j	1	1	0
0	1	0	0.4	0	0.4	1	0	0	1	3	298	0	492.165453033522	j	1	0	0
0	1	0.2	0.4	0	0	0	0	0	0	3	299	0.4	318.631801987067	k	2	1	0
1	1	0.8	0.6	0.4	0	0	0	0	0	3	300	0.6	368.43739496544	j	1	1	1
0	1	0	0.6	0.6	0.4	1	0	0	0	3	301	0.6	528.52361695841	k	2	1	1
1	2	0	0	0.4	0.4	0	5	1	1	3	302	0	418.381121940911	k	2	1	1
1	2	1	0.2	0	0.6	0	0	0	1	3	303	0.2	684.456231771037	j	1	1	1
0	2	-0	0.4	0.2	0	0	0	0	0	3	304	-0	366.490171058103	k	2	0	0
0	1	0.8	0.6	0.6	0.6	0	3	1	0	3	305	0.6	480.210923124105	j	1	1	1
0	2	0.4	0.4	-0	0.2	1	1	1	0	3	306	0.4	558.689292054623	k	2	0	1
0	2	0.4	0.6	0.4	0.6	0	0	0	1	3	307	0.6	585.470036836341	k	2	1	0
0	2	0.4	0.2	0.6	0.4	0	0	0	0	3	308	0.2	377.622506115586	j	1	1	1
0	2	0.2	0	0.2	0.6	0	0	0	0	3	309	0	917.440260061994	k	2	1	1
1	1	0.2	0.2	0.6	-0	0	4	1	1	3	310	0.2	428.434858098626	j	1	0	0
0	2	0.6	0.2	0	0.2	1	1	1	0	3	311	0.6	375.694972928613	j	1	0	0
1	2	0.4	0	0.6	0.2	0	0	0	1	3	312	0.4	431.096820160747	j	1	0	1
0	2	0.2	0.4	0.4	0.6	0	0	0	0	3	313	0.2	433.356695109978	j	1	0	1
1	1	0.4	0.6	0.2	0	1	3	1	1	3	314	0.6	657.729848986492	k	2	1	0
0	1	0.4	-0	0.6	0.2	1	0	0	1	3	315	-0	354.801555164158	j	1	1	1
1	2	0.4	0.2	0.2	0.4	1	2	1	0	3	316	0.2	671.446956926957	k	2	1	0
1	1	0.6	0.4	-0	0.6	0	1	1	0	3	317	0.4	446.612155996263	j	1	1	1
1	1	0.6	0.6	0.4	0.2	1	0	0	1	3	318	0.6	430.784279014915	j	1	0	0
0	1	0.8	0.2	0.6	0.4	1	0	0	0	3	319	0.8	474.776285002008	k	2	0	1
0	2	0.2	0	0.2	-0	0	3	1	1	3	320	0.2	482.177786994725	k	2	0	0
1	1	1	0.6	0.8	0.6	0	1	1	0	3	321	1	387.018389999866	k	2	0	1
1	2	0.2	-0	0.2	0.8	0	1	1	1	3	322	-0	460.406936937943	k	2	1	0
1	2	0.6	0.2	-0	1	1	0	0	1	3	323	0.2	830.921764951199	j	1	1	1
1	2	0.8	0	0.2	-0	1	0	0	0	3	324	0.8	593.530817888677	k	2	0	0
0	1	0.4	0.2	1	0.2	1	3	1	1	3	325	0.4	345.146300969645	k	2	0	1
1	2	0.8	0.4	0.8	0.2	0	1	1	0	3	326	0.8	500.206507043913	j	1	0	1
0	2	0.2	0.4	0.8	0.4	1	0	0	1	3	327	0.2	410.495901014656	k	2	0	1
1	2	0.2	0.6	0.2	0.8	1	0	0	0	3	328	0.6	486.607325030491	j	1	1	0
0	2	0.4	0.6	0.6	0.2	0	0	0	0	3	329	0.6	366.224664030597	j	1	1	1
1	1	0.6	0	0.4	0.8	0	4	1	1	3	330	0	655.907266074792	j	1	1	0
0	2	0.6	0.2	0.6	0.6	1	1	1	0	3	331	0.2	416.012750938535	k	2	1	1
0	2	0.2	0.2	0.2	0	0	0	0	1	3	332	0.2	394.491659011692	k	2	0	0
1	1	0.6	0	0	0.6	1	2	1	1	3	333	0.6	595.378625905141	k	2	0	0
0	1	1	0	0.6	0.2	1	0	0	1	3	334	1	419.715394033119	k	2	0	1
1	2	0.6	0	0.2	0.2	1	2	1	0	3	335	0.6	400.717160198838	j	1	0	1
0	2	1	0	0.6	1	1	0	0	1	3	336	0	375.296619022265	j	1	1	0
0	2	0.2	0.6	0	0.6	0	0	0	0	3	337	0.2	387.431676965207	k	2	0	0
1	2	1	0.6	0.2	0	1	0	0	0	3	338	1	724.274549167603	k	2	0	1
1	1	0.8	0	1	0.6	0	4	1	0	3	339	0.8	397.060931893066	j	1	0	1
0	1	0.6	0.6	0.8	1	1	0	0	1	3	340	0.6	670.684437034652	k	2	0	1
1	1	1	-0	0.6	0.8	0	0	0	0	3	341	1	486.8361169938	j	1	0	1
0	2	1	0.6	1	0.2	0	3	1	0	3	342	1	393.593488028273	k	2	0	NaN
1	2	0.4	0.2	1	1	1	0	0	1	3	343	NaN	NaN	NaN	NaN	NaN	0
1	2	0.6	-0	NaN	1	0	0	0	0	3	344	0.6	370.67288486287	j	1	0	0
0	1	0.2	0.6	1	0.6	1	3	1	0	3	345	0.2	397.710837889463	k	2	0	1
0	1	0.6	0.8	0.2	0.6	0	0	0	1	3	346	0.6	316.14393601194	j	1	0	1
0	1	0.4	0.2	0.6	0.2	0	0	0	0	3	347	0.4	345.20787303336	j	1	0	1
0	2	1	0.6	0.6	NaN	0	3	1	0	3	348	1	529.019470093772	k	2	0	1
0	1	0.2	0.4	0.4	0.6	0	1	1	0	3	349	0.4	337.306288070977	k	2	1	0
0	1	0.2	0.4	0.4	1	0	0	0	1	3	350	0.4	850.462449947372	k	2	1	1
1	2	0.4	0.6	1	0.4	0	2	1	1	3	351	0.4	348.940229974687	k	2	0	1
0	2	1	0.2	0.4	0.4	0	0	0	1	3	352	1	559.354267083108	k	2	0	1
0	1	0.6	0.4	0.4	0.4	0	2	1	0	3	353	0.4	400.33454191871	k	2	1	1
0	1	0	0.2	0.4	1	0	0	0	1	3	354	0	456.649264087901	k	2	0	0
1	2	0.6	0.2	1	0.4	0	2	1	0	3	355	0.6	433.593937195837	k	2	0	1
1	1	0.4	0.2	0	0.4	0	1	1	0	3	356	0.4	394.966963911429	j	1	0	1
0	2	0.4	0	0.6	0	0	1	1	1	3	357	0.4	451.410678913817	j	1	0	1
0	2	0.4	0.4	0.4	0.4	0	0	0	1	3	358	0.4	367.006405955181	k	2	1	0
1	2	0.2	0.8	0.4	0.4	1	0	0	0	3	359	0.8	397.470548981801	k	2	1	1
1	1	0.2	0	0.4	0.6	1	3	1	1	3	360	0	335.586143191904	j	1	1	0
1	1	0.8	0.6	NaN	NaN	NaN	NaN	NaN	NaN	4	1	0.6	552.433889359236	j	1	1	NaN
1	1	0.6	0.2	0.6	NaN	1	0	0	NaN	4	2	0.2	502.317864447832	j	1	1	1
0	1	0.6	0	0.2	0.6	1	0	0	0	4	3	0.6	484.601937234402	j	1	0	0
0	1	0.6	1	0.6	0.2	0	0	0	0	4	4	0.6	583.565820008516	k	2	0	1
1	2	0.2	0.4	NaN	NaN	NaN	4	1	NaN	4	5	0.2	499.25022944808	j	1	0	NaN
0	2	1	0	0.2	0.6	1	0	0	1	4	6	0	490.174785256386	j	1	1	0
1	1	-0	0.6	0.6	0.6	0	2	1	0	4	7	-0	880.12757897377	j	1	0	NaN
1	1	0.2	0.6	-0	0	1	0	0	1	4	8	NaN	NaN	NaN	NaN	NaN	0
0	2	0.8	0.4	0	0.2	1	2	1	0	4	9	0.4	648.807933554053	j	1	1	1
0	1	0.8	0.6	NaN	-0	1	1	1	0	4	10	0.6	541.560484096408	j	1	1	0
1	1	0.8	0	0.6	0.4	0	0	0	1	4	11	0	524.012429639697	j	1	1	1
1	2	0.6	0.4	0.4	NaN	0	2	1	1	4	12	0.4	552.949855104089	k	2	1	1
0	1	0	0.4	0	0.6	1	1	1	0	4	13	0.4	403.078088536859	j	1	1	1
0	1	0	0.8	0.4	0.4	0	0	0	1	4	14	0.8	498.359212651849	j	1	1	1
0	2	0.2	0.6	0.4	0	0	2	1	1	4	15	0.6	495.577998459339	j	1	1	1
1	1	0.4	0.2	0.8	0.4	0	1	1	0	4	16	0.2	595.597565174103	k	2	1	1
0	1	0	0.4	0.2	0.6	1	0	0	1	4	17	0.4	486.638886854053	j	1	1	1
0	1	-0	0.8	0.4	0.2	0	0	0	0	4	18	0.8	444.829951971769	k	2	1	1
0	1	0.4	1	0.8	0.4	0	0	0	0	4	19	1	681.989217177033	j	1	1	1
1	1	0.4	0.4	1	0.8	0	0	0	0	4	20	0.4	653.654351830482	k	2	1	1
1	2	0.6	0.2	0.6	0.8	1	5	1	1	4	21	0.2	666.266977787018	j	1	1	1
1	2	0.4	0.4	0.2	0.4	1	0	0	1	4	22	0.4	498.906100168824	j	1	0	0
1	2	0.4	0.6	0.4	0.2	0	0	0	0	4	23	0.4	478.92851382494	j	1	0	1
1	1	0.4	0	0.4	1	1	3	1	0	4	24	0	401.364294812083	k	2	1	1
1	1	0.2	1	0	0.4	1	0	0	1	4	25	0.2	409.794725477695	j	1	0	0
1	2	0.6	0.8	0.4	0.4	1	2	1	0	4	26	0.6	750.898404046893	j	1	0	1
1	2	0.6	0.8	0.6	0.2	0	0	0	1	4	27	0.6	681.14791251719	j	1	0	1
0	2	0.6	0.6	0.6	0.6	0	0	0	0	4	28	0.6	584.039963781834	k	2	0	NaN
1	1	-0	0.6	0.2	0	1	3	1	0	4	29	-0	555.851630866528	j	1	0	1
1	2	0.2	0.6	0.6	0.6	1	1	1	0	4	30	NaN	NaN	NaN	NaN	NaN	0
0	1	0.2	0.8	-0	0.6	1	1	1	1	4	31	0.8	744.07347664237	j	1	1	0
1	2	0.8	0.4	NaN	-0	0	1	1	1	4	32	0.4	682.721979916096	j	1	1	0
1	1	0.4	0.8	0.8	NaN	0	1	1	1	4	33	0.8	616.561247035861	j	1	1	1
1	2	0.6	0.2	0.4	0.8	0	1	1	1	4	34	0.6	591.303277760744	k	2	0	0
1	2	0.4	0.6	0.6	0.8	0	0	0	1	4	35	0.4	792.999662458897	k	2	0	1
1	2	0.2	0.4	0.4	0.6	1	0	0	0	4	36	0.4	624.969832599163	k	2	1	0
1	2	0.8	0.4	0.4	0.4	1	0	0	0	4	37	0.8	988.995781168342	j	1	0	0
1	1	0.4	0.6	0.8	0.4	1	4	1	1	4	38	0.6	799.8619787395	k	2	1	1
0	1	0.2	0.4	0.6	0.8	1	0	0	1	4	39	0.4	637.171324342489	j	1	1	1
0	2	0.6	0.2	0.8	0.4	1	2	1	0	4	40	0.6	828.951315954328	j	1	0	1
1	1	0.8	0.6	0.4	0.6	0	1	1	0	4	41	0.6	592.693084850907	k	2	1	1
1	1	0.2	0.2	0.6	0.6	1	0	0	1	4	42	0.2	455.031154677272	j	1	1	1
1	1	0	0	0.2	0.6	1	0	0	0	4	43	0	545.995324850082	j	1	0	0
0	2	0.6	0.4	0.6	0.4	1	3	1	1	4	44	0.4	590.045787394047	j	1	1	0
0	2	0.2	0.6	0.4	0	0	0	0	1	4	45	0.6	572.147127240896	k	2	1	1
1	2	0.2	0.2	0.6	0.4	1	0	0	0	4	46	0.2	608.733316883445	j	1	0	0
1	1	0.4	-0	0	0.2	1	3	1	0	4	47	-0	743.286406621337	j	1	1	0
0	1	0.4	0	-0	0.2	1	0	0	1	4	48	0.4	627.226015552878	j	1	0	0
0	1	1	0.2	0.4	-0	0	0	0	0	4	49	1	623.091680929065	j	1	0	1
1	1	0.4	0.4	1	0.4	0	0	0	0	4	50	0.4	748.020932078362	k	2	0	1
0	2	0	0.2	0.2	0.6	1	4	1	0	4	51	0.2	683.886466547847	j	1	1	0
1	2	0	1	0.2	0.4	0	0	0	1	4	52	0	672.556513920426	k	2	0	0
1	1	0.6	0.4	0.4	1	1	2	1	0	4	53	0.6	941.267756745219	j	1	0	1
1	1	0.4	0.2	0.6	0	1	0	0	1	4	54	0.2	579.12932895124	k	2	1	0
0	1	0.6	-0	0.2	0.6	1	0	0	0	4	55	-0	487.476883456111	j	1	1	1
1	2	0	1	0	0.2	1	3	1	0	4	56	0	587.114488705993	k	2	0	1
0	1	0.8	-0	-0	0.2	0	1	1	0	4	57	-0	961.407944560051	k	2	1	NaN
0	1	1	0.4	-0	0	0	0	0	1	4	58	NaN	NaN	NaN	NaN	NaN	0
0	2	0	1	0	-0	1	2	1	1	4	59	1	842.674503102899	j	1	1	0
0	1	0.8	0.6	NaN	-0	0	1	1	0	4	60	0.8	773.741202428937	j	1	0	NaN
1	2	0.8	0.4	1	NaN	1	1	1	1	4	61	0.8	845.117004588246	j	1	0	0
0	2	0.2	0.2	0.8	0.8	1	0	0	1	4	62	0.2	688.033549115062	j	1	0	1
0	1	0.6	0	0.8	1	0	2	1	1	4	63	NaN	NaN	NaN	NaN	NaN	0
0	2	0.4	0.8	0.2	0.8	0	1	1	0	4	64	0.4	586.742527782917	j	1	0	1
0	2	0.2	-0	0.4	NaN	0	0	0	1	4	65	0.2	631.413577124476	k	2	0	1
1	1	0.6	0.8	NaN	0.2	0	2	1	1	4	66	0.8	695.369448512793	j	1	1	0
1	2	0.2	-0	0.2	0.4	1	1	1	0	4	67	0.2	554.29950542748	j	1	0	1
0	2	0.4	0.2	0.2	0.8	1	0	0	1	4	68	0.2	662.128748372197	k	2	1	0
0	2	0.8	-0	0.2	0.2	1	0	0	0	4	69	-0	483.787372708321	j	1	1	1
0	1	0.4	0.4	0.8	0.2	1	3	1	1	4	70	0.4	850.048309192061	j	1	0	0
1	1	0.4	1	0.4	-0	0	0	0	1	4	71	1	713.108003139496	j	1	1	0
1	1	0	0.2	1	0.4	1	0	0	0	4	72	0.2	748.271515592933	j	1	1	1
0	2	0.6	-0	-0	0.2	0	3	1	0	4	73	-0	667.012698948383	j	1	1	1
1	2	0.6	0.2	-0	0.2	0	0	0	1	4	74	0.6	428.562179207802	j	1	0	0
0	2	0.8	0.6	0.6	-0	0	0	0	0	4	75	0.8	916.96042008698	j	1	0	NaN
0	1	0.2	0	0.2	1	1	3	1	0	4	76	0	751.971703022718	k	2	1	1
0	1	0.4	1	0	0.8	0	0	0	1	4	77	0.4	646.758479997516	j	1	0	0
1	2	1	0.2	0.8	0.6	0	2	1	0	4	78	NaN	NaN	NaN	NaN	NaN	0
0	2	0.6	0.4	NaN	0.4	0	0	0	1	4	79	0.6	926.828902214766	k	2	0	0
0	2	0.2	0.2	0.6	NaN	1	0	0	0	4	80	0.2	813.399968668818	j	1	0	1
0	2	0.6	0.4	0.2	0.6	0	0	0	0	4	81	0.6	778.74605730176	j	1	0	1
0	1	0.4	0.6	0.4	0	0	4	1	0	4	82	0.4	968.021184206009	k	2	0	1
0	2	0.2	0.6	0.6	0.2	1	1	1	0	4	83	0.2	692.990904673934	j	1	0	1
0	2	0.8	1	0.2	0.4	1	0	0	1	4	84	0.8	529.160043224692	k	2	0	1
1	2	0.2	-0	0.8	0.2	0	0	0	0	4	85	0.2	591.364797204733	j	1	0	1
0	2	0.8	0.2	0.2	0.8	0	0	0	0	4	86	0.8	482.438152655959	k	2	0	1
0	1	0	0.8	0.4	0.6	0	4	1	1	4	87	0.8	952.232904732227	j	1	1	0
1	2	1	0.6	0.8	0.2	0	1	1	0	4	88	0.6	484.55816693604	j	1	1	0
0	2	1	0.6	0.6	0.8	0	0	0	1	4	89	0.6	480.455238372087	k	2	1	1
0	2	1	0.2	0.6	0.6	0	0	0	0	4	90	1	383.779920637608	j	1	0	0
0	1	0	0.6	0.8	0.8	0	3	1	1	4	91	0	730.55562749505	j	1	0	0
1	2	1	0	1	0.6	1	1	1	0	4	92	1	977.850103750825	j	1	0	1
1	1	0.4	0.4	0	1	0	1	1	1	4	93	0.4	926.497923210263	j	1	1	0
1	1	0.4	0.4	0.4	1	1	0	0	1	4	94	0.4	761.065339669585	j	1	0	0
1	1	0.4	0	0.4	0.4	1	0	0	0	4	95	0	574.17856156826	j	1	1	0
1	1	0.2	0.8	0	0.4	1	0	0	0	4	96	0.2	941.745767369866	j	1	0	0
0	2	0.4	1	1	0	1	4	1	1	4	97	1	563.589330762625	j	1	1	0
1	2	0.4	-0	1	0.2	1	0	0	1	4	98	-0	951.906803995371	j	1	1	1
0	1	0	1	0.2	0	1	2	1	0	4	99	1	450.773162767291	k	2	1	0
0	1	0.2	0.4	1	-0	0	0	0	1	4	100	0.2	945.628946647048	k	2	0	NaN
1	2	0.8	0.2	-0	1	1	2	1	0	4	101	0.2	566.251847893	j	1	1	1
1	2	0.2	0.6	0.2	0.2	0	0	0	1	4	102	0.2	597.291115671396	k	2	0	0
0	2	0	0.8	0.2	0.2	0	0	0	0	4	103	0	495.414862409234	j	1	0	1
0	1	0.8	0.2	0.2	1	0	3	1	0	4	104	NaN	NaN	NaN	NaN	NaN	0
1	2	0.6	0.6	0	0.2	0	1	1	0	4	105	0.6	675.04264973104	j	1	1	0
0	1	0.6	0	NaN	0	0	1	1	1	4	106	0	615.685041993856	j	1	1	0
0	1	0.8	0.2	0	0.6	0	0	0	1	4	107	0.8	561.886610463262	k	2	0	0
1	1	0.6	0.4	0.8	0	0	0	0	0	4	108	0.6	847.285935655236	j	1	0	1
1	2	0.2	1	0.6	NaN	0	3	1	1	4	109	0.2	647.247532382607	j	1	0	0
1	2	1	1	0.2	0.6	0	0	0	1	4	110	1	405.103145167232	k	2	1	0
1	2	0.2	1	1	0.2	1	0	0	0	4	111	0.2	416.709242388606	j	1	0	0
1	1	0.6	-0	0.6	0.8	1	3	1	0	4	112	-0	627.6192702353	j	1	1	0
0	1	0.6	0.4	-0	0.2	1	0	0	1	4	113	0.6	512.630235403776	j	1	0	0
1	1	0.4	0.6	0.6	-0	0	0	0	0	4	114	0.4	585.004845634103	j	1	0	1
0	1	1	0.2	0.4	0.6	1	0	0	0	4	115	1	476.665861904621	j	1	0	1
1	2	0.4	0.6	0.2	1	1	4	1	0	4	116	0.6	536.204161122441	k	2	1	0
1	2	0.6	0.2	0.6	1	0	0	0	1	4	117	0.2	621.087774634361	j	1	1	1
1	1	0.6	0.6	1	0.4	0	2	1	0	4	118	0.6	426.568364724517	k	2	1	0
0	1	0.6	0.8	0.6	0.2	1	0	0	1	4	119	0.6	480.772374197841	j	1	0	0
1	1	0.4	0.4	0.6	0.6	0	0	0	0	4	120	0.4	459.028201177716	k	2	1	0
0	2	0	0.2	0.2	0.6	1	3	1	0	4	121	0.2	409.266920760274	j	1	1	1
0	1	0.2	0.4	0.4	0.6	1	1	1	0	4	122	0.4	653.570968657732	k	2	1	1
1	2	-0	0.4	0.2	0.4	0	1	1	1	4	123	-0	501.465301960707	j	1	0	0
0	2	0.4	0.4	-0	0.4	1	0	0	1	4	124	0.4	897.04305678606	j	1	1	0
1	2	0.2	0.4	0.4	-0	0	0	0	0	4	125	0.4	870.186127722263	k	2	1	1
1	1	0.6	0.6	0.4	0.2	0	3	1	1	4	126	0.6	841.41756221652	j	1	0	0
0	1	0.4	-0	0.6	0.4	1	0	0	1	4	127	0.4	504.54580411315	j	1	0	1
0	1	0.2	0.6	0.4	0.6	0	0	0	0	4	128	0.2	575.310884043574	k	2	0	1
0	1	0.2	0.4	0.2	0.4	0	0	0	0	4	129	0.2	668.446091935039	k	2	0	1
0	2	-0	0	0.4	0.4	1	4	1	0	4	130	-0	552.376888692379	j	1	0	0
1	1	0	0.4	0.2	0.2	0	1	1	0	4	131	0	596.971930935979	j	1	0	1
0	2	0.2	0.4	-0	0.2	0	1	1	1	4	132	0.2	769.78755928576	k	2	0	1
0	2	0.4	0.4	0.2	0	1	0	0	1	4	133	0.4	520.495804026723	j	1	1	0
0	1	0	0.6	0	-0	1	2	1	1	4	134	0.6	556.598180904984	j	1	1	0
1	2	0.2	0.4	0.4	0.2	0	1	1	0	4	135	0.2	714.811401441693	j	1	0	0
0	2	0.4	0.8	0.2	0.6	0	0	0	1	4	136	0.4	578.710781410336	k	2	0	1
0	1	0	0.6	0.6	0.4	0	2	1	1	4	137	0.6	569.867547601461	k	2	1	1
0	2	0.4	0	0.4	0.2	0	1	1	0	4	138	0	487.704331055284	j	1	1	0
0	2	0.8	0.2	0	0.6	1	0	0	1	4	139	0.2	725.240740925074	j	1	1	1
1	1	0	1	0.6	0.4	0	2	1	1	4	140	1	896.47581987083	j	1	1	1
1	2	0.4	-0	0.2	0	0	1	1	0	4	141	0.4	509.217524901032	k	2	0	0
1	2	0.6	0.6	0.4	1	0	0	0	1	4	142	0.6	516.869736835361	j	1	1	0
1	1	0.2	0.8	1	0.2	1	2	1	1	4	143	0.8	783.86652469635	k	2	1	1
1	2	0.2	-0	0.6	0.4	1	1	1	0	4	144	-0	487.162102013826	j	1	1	1
1	2	0.6	0.2	-0	0.8	1	0	0	1	4	145	0.6	540.237132459879	k	2	0	0
1	2	0.2	0	0.6	-0	0	0	0	0	4	146	0.2	546.125015243888	j	1	0	1
0	2	0.2	0.4	0.2	0.6	1	0	0	0	4	147	0.4	437.606874853373	j	1	1	0
0	1	0.6	1	0.8	0.6	1	4	1	1	4	148	1	417.103260755539	k	2	1	1
0	2	0.2	1	0.4	0.2	1	1	1	0	4	149	0.2	695.263123139739	k	2	0	0
1	1	1	-0	1	0.4	0	1	1	1	4	150	-0	692.053550854325	j	1	1	1
1	1	0	0.6	-0	0.2	1	0	0	1	4	151	0	562.445048242807	k	2	0	0
0	2	0	0.4	0.2	1	1	2	1	1	4	152	0	622.299930080771	j	1	0	1
1	1	0.8	0.4	0	-0	1	1	1	0	4	153	0.8	514.093555510044	j	1	0	1
1	1	0.2	0.4	0.8	0	1	0	0	1	4	154	0.4	665.313839912415	j	1	1	0
1	2	0	0.6	0	0	1	2	1	1	4	155	0	557.410731911659	k	2	0	1
1	1	0.8	0.6	0.4	0.8	1	1	1	0	4	156	0.8	546.220015734434	j	1	0	0
0	1	-0	0.6	0.8	0	1	0	0	1	4	157	0.6	704.832682386041	k	2	1	0
1	2	0.4	0.4	0	0.4	1	2	1	1	4	158	0.4	658.359182998538	j	1	0	1
1	2	0.6	0.6	0.4	0.6	0	0	0	1	4	159	0.6	570.939058437943	k	2	1	0
1	1	0.4	0.2	0.6	0.8	0	2	1	0	4	160	0.4	559.24548022449	j	1	0	0
1	1	0	0.4	0.4	0.6	1	0	0	1	4	161	0	657.422078773379	k	2	0	1
0	2	0.2	0.4	0.6	0.4	1	2	1	0	4	162	0.4	774.901524186134	j	1	1	NaN
1	1	0.4	0	0	0.4	1	1	1	0	4	163	0	691.871536895633	k	2	1	0
1	2	0.2	0.8	0.4	0	1	1	1	1	4	164	NaN	NaN	NaN	NaN	NaN	0
0	2	0.4	0.6	NaN	0	1	0	0	1	4	165	0.6	631.60428032279	j	1	1	0
1	1	0.6	0	0	0.4	1	2	1	1	4	166	0.6	859.121035784483	k	2	0	0
1	2	0.4	0.8	0.6	NaN	1	1	1	0	4	167	0.4	794.035131111741	j	1	0	0
1	2	0.8	1	0.4	0.6	0	0	0	1	4	168	0.8	652.718160301447	k	2	0	1
0	1	0.6	0	0.6	0.6	1	2	1	1	4	169	0.6	611.237162724137	j	1	0	1
1	2	0.8	0.6	0.8	0.4	0	1	1	0	4	170	0.8	664.969796314836	k	2	0	1
0	1	0.2	0	0.6	0.8	0	1	1	1	4	171	0	853.526901453733	k	2	1	0
1	2	0	1	0.8	0.6	1	1	1	1	4	172	1	763.731501996517	j	1	1	0
1	1	0	0	0	0.8	0	1	1	1	4	173	0	569.180391728878	k	2	0	0
1	2	1	0.4	1	0	1	1	1	1	4	174	0.4	443.870538845658	j	1	1	1
1	2	0.6	0.4	0.4	0	1	0	0	1	4	175	0.6	815.387785434723	k	2	0	NaN
0	2	1	0.6	0.6	0.4	1	0	0	0	4	176	NaN	NaN	NaN	NaN	NaN	NaN
1	2	0.2	0.2	NaN	0.6	0	0	0	0	4	177	NaN	NaN	NaN	NaN	NaN	0
1	1	0.8	0.8	0	1	1	4	1	1	4	178	0.8	576.395032927394	j	1	0	1
1	1	0.8	0	0.8	NaN	1	0	0	1	4	179	0	468.938525766134	k	2	1	0
1	2	0.4	0.4	NaN	NaN	1	2	1	0	4	180	0.4	457.287227734923	j	1	0	0
1	1	0.2	0.2	0	0.8	1	1	1	0	4	181	0.2	625.433759763837	j	1	1	1
1	2	0.2	0.2	0.4	0	0	1	1	1	4	182	0.2	744.853470474482	j	1	0	1
0	2	0.8	1	0.2	0.2	0	0	0	1	4	183	1	724.691348150373	j	1	1	0
1	2	0.8	0.4	1	0.2	1	0	0	0	4	184	0.8	467.284984886646	j	1	0	0
0	2	0.8	0.2	0.8	1	1	0	0	0	4	185	0.2	519.468123093247	j	1	1	0
1	2	1	0.8	0.2	0.8	1	0	0	0	4	186	0.8	651.837181299925	j	1	1	1
0	1	0	0.4	0.2	0.4	1	5	1	1	4	187	0.4	600.010719150305	j	1	1	1
1	2	0.8	0.4	0.8	0.2	0	1	1	0	4	188	0.8	615.089364349842	j	1	0	0
0	2	0.4	0	0.8	0.4	1	0	0	1	4	189	0.4	490.494711324573	j	1	0	1
1	1	0.2	0.8	0.4	0.8	0	2	1	1	4	190	0.2	690.038196742535	j	1	0	0
0	1	0.2	0.4	0.2	0.4	1	0	0	1	4	191	0.4	413.940524682403	k	2	1	0
1	2	0	0.2	0.4	0.8	0	2	1	0	4	192	0.2	793.012846261263	j	1	1	0
0	1	0.4	0.6	0.4	0.2	0	1	1	0	4	193	0.6	558.388151228428	j	1	1	1
1	2	0.6	0.4	0.2	0.4	0	1	1	1	4	194	0.4	474.202690646052	k	2	1	1
1	1	0.2	1	0.6	0.2	0	1	1	1	4	195	1	528.922343626618	j	1	1	1
1	2	0.4	0.4	0.4	0.6	0	1	1	1	4	196	0.4	575.043730437756	j	1	1	1
1	1	0.4	0.4	1	0.4	1	1	1	1	4	197	0.4	690.188640728593	j	1	1	1
1	1	0.4	0.4	0.4	0.4	1	0	0	1	4	198	0.4	558.566613122821	j	1	0	0
0	2	0.4	-0	0.4	1	0	2	1	1	4	199	0.4	575.053023174405	j	1	0	0
0	2	0.6	0.4	0.4	0.4	1	0	0	1	4	200	0.4	713.728768751025	j	1	1	0
0	1	0	0.6	0.4	0.4	1	2	1	0	4	201	0	541.87485948205	k	2	0	1
1	1	0.8	0.6	0	0.4	0	0	0	1	4	202	0.6	835.177265107632	k	2	1	0
0	1	1	0.6	0.6	0	1	0	0	0	4	203	0.6	592.294491827488	j	1	1	1
0	1	0.2	0	0.6	0.6	0	0	0	0	4	204	0	549.041766673326	j	1	1	1
0	1	1	0.6	0	0.6	0	0	0	0	4	205	1	698.420939967036	k	2	0	0
0	2	0.2	0.2	0.4	0.4	0	5	1	0	4	206	0.2	782.571740448475	j	1	0	0
0	2	0	0.4	0.2	1	0	0	0	1	4	207	0	627.549273893237	k	2	0	1
0	2	0.4	-0	0	0.2	0	0	0	0	4	208	0.4	514.140764251351	j	1	0	1
0	1	0.6	0.6	1	0	0	3	1	0	4	209	0.6	750.772621482611	j	1	0	1
1	1	0.6	0	0.6	0.4	0	0	0	1	4	210	0	716.504478827119	j	1	1	0
0	1	1	0.4	0	0.6	1	0	0	0	4	211	1	529.951699078083	k	2	0	0
0	2	1	0	0.4	0	1	3	1	0	4	212	1	628.569815307856	j	1	0	NaN
0	1	0.4	-0	1	0	0	1	1	0	4	213	0.4	593.328924849629	k	2	0	1
1	2	0.6	0	1	1	1	1	1	1	4	214	NaN	NaN	NaN	NaN	NaN	0
1	2	0.2	0	NaN	0.4	0	0	0	1	4	215	0.2	413.056841120124	j	1	0	0
0	1	0.2	0.4	0.4	1	0	2	1	1	4	216	0.4	866.092909127474	k	2	1	0
1	2	0.4	0.2	0.2	NaN	0	1	1	0	4	217	0.2	489.022737368941	j	1	1	0
0	2	0.6	0.4	0.2	0.4	0	0	0	1	4	218	0.4	795.204896479845	k	2	1	1
1	1	0.2	0.2	0.4	0.2	0	2	1	1	4	219	0.2	618.757700547576	j	1	1	1
1	1	0.6	0.4	0.2	0.4	1	0	0	1	4	220	0.4	612.891105934978	k	2	1	1
1	2	0.6	-0	0.4	0.2	0	2	1	0	4	221	0.6	501.424577087164	j	1	0	0
0	1	0.4	0.6	0.4	0.2	1	1	1	0	4	222	0.4	442.292053252459	k	2	0	0
0	2	0	0.6	0.6	0.4	1	1	1	1	4	223	0.6	382.510421797633	j	1	1	0
0	2	0.4	0.6	0.6	0.4	1	0	0	1	4	224	0.6	755.370248109102	j	1	1	1
1	2	0.4	0	0.6	0.6	1	0	0	0	4	225	0	533.332956954837	j	1	1	1
0	1	0.4	1	0.4	0.6	0	3	1	1	4	226	1	779.292471706867	k	2	1	0
0	1	0.4	0.6	1	0	0	0	0	1	4	227	0.6	474.694592878222	j	1	1	1
0	1	0.2	0.8	0.6	1	0	0	0	0	4	228	0.8	655.112897977233	j	1	1	1
1	1	0.4	0.6	0.8	0.6	0	0	0	0	4	229	0.6	553.759256377816	j	1	1	1
1	1	0.4	1	0.6	0.8	1	0	0	0	4	230	1	633.280698210001	k	2	1	1
0	2	0	0.8	0	0.6	0	5	1	0	4	231	0.8	869.711877778172	k	2	1	1
1	2	0.4	0.6	0.8	1	1	0	0	1	4	232	0.6	472.574777901173	j	1	1	1
1	2	-0	0.6	0.6	0.8	1	0	0	0	4	233	0.6	522.253405302763	k	2	1	1
0	2	0.8	0.4	0.6	0.6	1	0	0	0	4	234	0.4	562.86952085793	k	2	1	1
1	1	0	0.2	1	0.6	1	4	1	0	4	235	0.2	744.811145588756	j	1	1	1
1	2	0.4	0.4	0.4	0.6	0	1	1	0	4	236	0.4	951.449766755104	j	1	0	0
0	1	0.2	0.4	0.2	0.4	1	1	1	1	4	237	0.4	641.77305996418	j	1	1	1
1	1	0.8	0.6	0.4	0.4	0	0	0	1	4	238	0.6	737.170774489641	j	1	1	1
1	1	0	0.4	0.6	0.4	1	0	0	0	4	239	0.4	700.602019205689	k	2	1	1
0	2	0.6	0.6	0.4	0.2	0	3	1	1	4	240	0.6	560.538623481989	j	1	1	0
1	1	0	0.4	0.4	0.6	1	1	1	0	4	241	0	672.128362581134	j	1	0	0
0	2	0.4	0.4	0.6	0.4	0	1	1	1	4	242	0.4	484.573202207685	j	1	1	1
0	1	0	0.6	0	0.6	1	1	1	1	4	243	0.6	553.902681916952	k	2	1	0
0	1	0	0.2	0.6	0.4	0	0	0	1	4	244	0.2	544.402191415429	j	1	1	1
0	1	0	0.6	0.2	0.6	0	0	0	0	4	245	0.6	579.832643270493	k	2	1	1
0	1	0.2	1	0.6	0.2	0	0	0	0	4	246	0.2	543.370291590691	j	1	0	0
0	1	0.6	0.8	0.2	0.6	0	0	0	0	4	247	0.8	500.080311670899	k	2	1	NaN
1	2	0.8	0.2	0.4	0	0	5	1	1	4	248	0.2	680.792015045881	j	1	1	1
1	2	0.6	0	0.2	0.8	0	0	0	1	4	249	0.6	712.905479595065	j	1	0	0
0	1	0.2	0.2	0.8	0.2	0	2	1	0	4	250	NaN	NaN	NaN	NaN	NaN	0
0	2	1	0.6	0.6	0.2	0	1	1	0	4	251	0.6	489.006094634533	j	1	1	0
1	2	0.8	0.4	0.6	NaN	1	0	0	1	4	252	0.4	512.481968849897	k	2	1	1
1	1	0.2	0.6	NaN	0.6	0	2	1	1	4	253	0.6	701.40727981925	j	1	1	0
0	2	1	0.6	0.4	0.6	0	1	1	0	4	254	1	713.888609781861	j	1	0	0
0	2	1	0.8	1	0.6	0	0	0	1	4	255	1	588.104827329516	j	1	0	1
0	2	0.8	0.8	1	1	0	0	0	0	4	256	0.8	491.90123565495	j	1	0	1
1	2	1	0.4	0.8	1	1	0	0	0	4	257	1	646.379748359323	k	2	0	1
0	1	0	0.2	0.6	0.4	1	4	1	1	4	258	0.2	754.985237494111	j	1	1	1
0	1	0.4	0.6	0.2	1	0	0	0	1	4	259	0.4	401.793494820595	k	2	0	0
0	1	0.2	0.4	0.4	0.2	0	0	0	0	4	260	0.2	678.581116721034	j	1	0	1
1	1	0.4	0.2	0.2	0.4	0	0	0	0	4	261	0.2	452.426383271813	k	2	1	0
0	2	0.8	0.6	1	0.8	0	4	1	0	4	262	0.8	407.347677275538	j	1	0	1
1	2	0.6	0	0.8	0.2	1	0	0	1	4	263	0.6	493.666347116232	k	2	0	1
0	2	0.8	0.6	0.6	0.8	1	0	0	0	4	264	0.8	403.297958895564	j	1	0	1
0	2	0.8	0.8	0.8	0.6	1	0	0	0	4	265	0.8	432.907290756702	j	1	0	NaN
0	1	0.4	0.4	0.2	0.2	1	4	1	0	4	266	0.4	638.02726753056	k	2	1	NaN
0	2	0.4	0	0.8	0.8	0	1	1	0	4	267	NaN	NaN	NaN	NaN	NaN	0
1	1	0.8	0	0.4	0.8	0	1	1	1	4	268	NaN	NaN	NaN	NaN	NaN	0
1	1	0.2	-0	NaN	NaN	1	0	0	1	4	269	0.2	516.521967947483	k	2	0	0
1	1	0.2	0.4	0.2	NaN	1	0	0	0	4	270	0.4	487.17681132257	j	1	1	0
0	2	0.4	0	NaN	0.4	0	3	1	1	4	271	0.4	588.938934728503	j	1	0	0
1	2	0.2	-0	0.4	0.4	0	0	0	1	4	272	-0	385.791927576065	k	2	1	0
0	1	0.6	0	0.4	0.2	1	2	1	0	4	273	0.6	742.199972271919	j	1	0	0
0	1	0.6	0	0.6	-0	0	0	0	1	4	274	0.6	592.774974182248	k	2	0	1
0	1	0.8	0.4	0.6	0.6	0	0	0	0	4	275	0.4	519.09632794559	j	1	1	0
0	1	0.8	0.2	0.4	0.6	0	0	0	0	4	276	0.2	582.46780000627	j	1	1	1
0	2	0	0.2	-0	0.4	0	4	1	0	4	277	0	616.238972172141	k	2	0	0
0	2	-0	0.4	0	0.2	0	0	0	1	4	278	-0	559.577519074082	j	1	0	1
1	2	-0	0.2	-0	0	0	0	0	0	4	279	0.2	620.749810710549	j	1	1	0
0	1	1	0.4	0.2	0.4	0	3	1	0	4	280	1	457.724414765835	j	1	0	0
0	1	0.6	0.4	1	0.2	0	0	0	1	4	281	0.6	500.977527350187	j	1	0	1
0	1	1	-0	0.6	1	0	0	0	0	4	282	1	667.785098776221	j	1	0	1
0	2	0.2	0.2	0.2	-0	0	3	1	0	4	283	0.2	729.13827560842	j	1	1	1
0	2	0.6	0.6	0.2	1	1	0	0	1	4	284	0.6	655.102178454399	j	1	0	0
1	1	0.6	0.4	1	0.6	0	2	1	0	4	285	0.6	906.311936676502	j	1	0	NaN
0	1	0.6	0.8	0.6	0.6	1	0	0	1	4	286	NaN	NaN	NaN	NaN	NaN	0
1	2	0.2	0.4	0.6	0.2	0	2	1	0	4	287	0.2	669.027164578438	j	1	0	1
0	1	0.4	0.6	NaN	0.6	0	1	1	0	4	288	0.4	698.539597913623	j	1	0	0
0	1	1	0.6	0.4	0.2	0	0	0	1	4	289	1	863.302234560251	k	2	0	1
0	2	-0	0.6	0.2	NaN	0	2	1	1	4	290	0.6	780.173972249031	j	1	1	0
1	1	0.4	0.6	1	0.4	0	1	1	0	4	291	0.4	583.337949588895	k	2	0	1
1	2	-0	0.8	0.6	1	0	1	1	1	4	292	0.8	628.177689388394	j	1	1	1
0	1	1	0.8	0.4	0.6	1	1	1	1	4	293	1	747.928125783801	j	1	0	1
1	1	1	0.2	1	0.8	0	0	0	1	4	294	1	736.574951559305	k	2	0	1
1	2	0.4	0.8	0.8	0.4	1	2	1	1	4	295	0.8	597.258731722832	j	1	1	1
0	1	0.4	0.4	1	1	1	1	1	0	4	296	0.4	528.53230945766	k	2	0	1
1	2	0.4	0.2	0.8	1	0	1	1	1	4	297	0.2	592.352392151952	j	1	1	1
1	2	-0	1	0.2	0.4	1	0	0	1	4	298	-0	458.844199776649	k	2	0	0
0	1	0.8	0.6	0.4	0.8	0	2	1	1	4	299	0.8	657.459871843457	j	1	0	1
1	1	1	0.4	0.8	-0	0	0	0	1	4	300	1	525.30256099999	j	1	0	1
1	2	0.2	0.8	-0	0.2	0	2	1	0	4	301	0.2	730.075087398291	k	2	0	1
1	1	0.6	0.2	1	0.8	1	1	1	0	4	302	0.6	967.325801029801	k	2	0	1
0	2	1	0.8	0.2	1	0	1	1	1	4	303	0.8	474.132539704442	j	1	1	0
1	1	0.4	0.6	0.6	0.2	1	1	1	1	4	304	0.4	592.843214049935	j	1	0	1
0	2	1	1	0.8	0.6	1	1	1	1	4	305	1	556.708643212914	k	2	0	0
0	2	0.6	0.8	1	0.4	1	0	0	1	4	306	0.6	539.276074618101	k	2	0	1
0	2	0.2	1	0.6	1	1	0	0	0	4	307	0.2	440.453957766294	k	2	0	1
0	2	0.2	0.8	0.2	0.6	1	0	0	0	4	308	0.2	487.184738740325	j	1	0	1
0	2	0.2	0.6	0.2	0.2	1	0	0	0	4	309	0.2	513.957170769572	j	1	0	1
1	1	0.6	0.2	0.4	0.8	1	5	1	1	4	310	0.6	671.1161211133	j	1	0	1
0	2	0.4	0.8	0.2	0.2	0	1	1	0	4	311	0.8	467.49584004283	j	1	1	0
1	2	0.6	0	0.8	0.6	1	0	0	1	4	312	0	698.869228363037	j	1	1	1
0	2	0.6	0.4	0	0.8	1	0	0	0	4	313	0.6	485.758183524013	j	1	0	0
1	1	0.8	0.6	0.6	0.2	1	3	1	1	4	314	0.8	532.744079828262	k	2	0	1
0	1	0.8	0	0.8	0.6	1	0	0	1	4	315	0	439.054543152452	j	1	1	0
0	2	0.8	0.2	0.6	0	0	2	1	0	4	316	0.2	668.540708720684	j	1	1	0
1	1	0.8	0.8	0	0.8	0	1	1	0	4	317	0.8	713.653525337577	k	2	0	0
1	1	0.8	0.6	0.8	0.2	1	0	0	1	4	318	0.8	695.61848975718	j	1	0	1
0	1	0.6	0.4	0.8	0.8	1	0	0	0	4	319	0.4	532.738249748945	j	1	1	0
1	2	0.4	0.2	0.2	0	0	3	1	1	4	320	0.2	635.319536551833	j	1	1	1
0	1	0.6	1	0.4	0.8	0	1	1	0	4	321	0.6	532.539363950491	k	2	0	0
0	2	0.4	0	0.2	0.4	1	1	1	1	4	322	0.4	443.36586818099	j	1	0	0
1	1	0.8	0.8	0.6	0.2	0	1	1	1	4	323	0.8	657.922742888331	j	1	0	1
0	2	1	0	0.4	0.6	1	1	1	1	4	324	1	476.892873644829	j	1	0	1
0	2	0	0.2	1	0.8	1	0	0	1	4	325	0	498.09468537569	j	1	0	1
1	1	0.8	0.8	0.8	0.4	1	2	1	1	4	326	0.8	608.01505856216	j	1	0	1
1	1	0.2	0.4	0.8	0	1	0	0	1	4	327	0.4	563.171392306685	k	2	1	0
1	1	0.2	1	0.4	0.8	1	0	0	0	4	328	1	537.719821557403	j	1	1	1
1	1	0.4	0.8	1	0.4	1	0	0	0	4	329	0.8	590.787192806602	k	2	1	1
0	1	1	0.6	0.8	1	1	0	0	0	4	330	0.6	580.172449350357	k	2	1	1
1	2	0.6	0.2	0	1	1	5	1	0	4	331	0.2	610.449546948075	j	1	1	0
1	2	0	0.4	0.2	0.6	1	0	0	1	4	332	0	420.263653621078	j	1	0	0
1	1	0.4	0.2	0.6	0.8	0	2	1	0	4	333	0.2	826.453903689981	j	1	1	1
0	2	0.8	0	0	0.2	0	1	1	0	4	334	0.8	672.669939696789	k	2	0	1
1	2	0.2	0	0.8	0.2	1	0	0	1	4	335	0.2	613.761773332953	j	1	0	1
1	2	0.8	0	0.2	0.8	1	0	0	0	4	336	0.8	481.991352513433	k	2	0	1
0	2	-0	0.4	0.8	0.2	1	0	0	0	4	337	-0	574.193213135004	j	1	0	1
0	2	1	0.4	-0	0.8	1	0	0	0	4	338	0.4	803.271410986781	j	1	1	0
1	1	0.6	0.2	0.2	0	1	5	1	1	4	339	0.2	609.043318778276	j	1	1	1
0	2	0.4	0.8	0.4	-0	1	1	1	0	4	340	0.8	460.116980597377	j	1	1	1
0	2	0.8	0.4	0.8	0.2	0	0	0	1	4	341	0.4	380.580520257354	j	1	1	1
0	2	0.8	0.6	0.4	0.8	1	0	0	0	4	342	0.6	512.918394058943	j	1	1	1
1	1	0.2	0.2	0.2	0.4	1	3	1	1	4	343	0.2	774.387514218688	j	1	0	0
1	1	0.6	0	0.2	0.6	1	0	0	1	4	344	0	507.945608347654	k	2	1	NaN
1	2	0	1	0.6	0.4	0	2	1	0	4	345	1	829.443968832493	j	1	1	1
1	2	0.4	1	1	0	0	0	0	1	4	346	1	522.427160292864	j	1	1	1
1	1	0.2	0.4	0	0.2	1	2	1	0	4	347	NaN	NaN	NaN	NaN	NaN	0
0	1	0.8	0.4	NaN	1	1	0	0	1	4	348	0.8	621.129177510738	j	1	0	0
1	1	0.4	0.8	0.8	NaN	0	0	0	0	4	349	0.8	819.566426798701	j	1	1	0
0	1	0	0.8	0.8	0.8	1	0	0	0	4	350	0	553.5405613482	k	2	0	0
0	1	0.4	0.8	0	0.8	0	0	0	0	4	351	0.8	734.28014293313	j	1	1	0
1	2	0.8	-0	1	1	1	5	1	0	4	352	0.8	600.808864459395	j	1	0	0
0	2	0.6	0.6	0.8	0.8	1	0	0	1	4	353	0.6	694.123489782214	j	1	0	1
0	2	0.2	0.4	0.6	0.8	0	0	0	0	4	354	0.2	586.136972531676	j	1	0	NaN
1	1	0.6	0.2	0.8	0	0	3	1	0	4	355	0.2	643.090423196554	j	1	1	1
1	1	0.4	0.6	0.2	0.2	1	0	0	1	4	356	0.4	391.910662874579	k	2	0	0
0	1	0.2	-0	0.4	0.2	1	0	0	0	4	357	-0	363.822935149074	j	1	1	0
1	2	0.4	0.2	0.2	0.6	0	3	1	0	4	358	NaN	NaN	NaN	NaN	NaN	0
0	1	0.2	0.8	-0	0.4	0	1	1	0	4	359	0.2	484.286451712251	j	1	0	0
0	1	0.4	0	0.2	NaN	0	0	0	1	4	360	0	595.032198354602	k	2	1	0
1	1	0.6	0.8	NaN	NaN	NaN	NaN	NaN	NaN	5	1	0.8	455.555295018712	k	2	1	NaN
1	2	0.2	0.4	NaN	NaN	NaN	1	1	NaN	5	2	0.2	572.591286996612	j	1	0	NaN
0	1	0.2	0.2	0.8	NaN	1	1	1	NaN	5	3	0.2	417.861880996497	j	1	1	1
0	2	0.4	1	0.2	0.8	1	1	1	1	5	4	0.4	520.023432007292	k	2	0	1
1	2	-0	1	0.4	0.2	0	0	0	1	5	5	-0	541.760580003029	j	1	0	1
0	2	0.6	0.2	-0	0.4	1	0	0	0	5	6	0.6	592.675466003129	j	1	0	1
1	1	0	0.8	0.2	0.2	0	3	1	1	5	7	0.8	501.831600005971	j	1	1	1
1	1	0	1	0.8	0.6	1	0	0	1	5	8	1	490.578680997714	j	1	1	1
1	1	0.6	1	1	0.8	1	0	0	0	5	9	1	472.237793001113	k	2	1	1
0	2	0.6	1	0.6	-0	1	3	1	0	5	10	1	366.440009995131	k	2	1	0
0	1	0.6	0.2	1	1	1	1	1	0	5	11	0.2	351.975722995121	j	1	1	1
0	2	0	0.8	1	1	1	1	1	1	5	12	0.8	470.80833997461	k	2	1	1
0	1	0	0.8	0.2	1	0	1	1	1	5	13	0.8	468.248978984775	j	1	1	1
0	2	0	1	0.8	0.2	0	1	1	1	5	14	1	366.395921009826	k	2	1	1
1	2	-0	0.8	1	0.8	0	0	0	1	5	15	0.8	541.902506985934	k	2	1	1
1	1	0.2	0.4	0.8	0.8	0	2	1	1	5	16	0.4	427.188599016517	k	2	1	1
0	2	0	0.8	0.8	1	1	1	1	0	5	17	0.8	390.844178997213	k	2	1	1
1	1	-0	0.8	0.4	0.8	1	1	1	1	5	18	0.8	547.246367001208	k	2	1	1
1	2	0.4	1	0.8	0.4	1	1	1	1	5	19	1	360.951792012202	k	2	1	1
1	2	0.6	0.4	1	0.8	1	0	0	1	5	20	0.4	469.72556898254	k	2	1	1
1	1	0.2	0.2	0.8	0.8	1	2	1	1	5	21	0.2	488.392140017822	k	2	1	1
1	2	0.4	0.6	0.4	1	0	1	1	0	5	22	0.4	686.839537986089	k	2	0	0
0	1	0	0.6	0.2	0.4	1	1	1	1	5	23	0	404.116352001438	k	2	0	0
0	2	0.8	0.2	0.4	0.2	0	1	1	1	5	24	0.2	752.119944023434	k	2	1	0
0	1	0.2	0.8	0	0.4	0	1	1	1	5	25	0.8	397.027003986295	j	1	1	0
0	1	0.4	0.8	0.8	0.2	0	0	0	1	5	26	0.8	528.412204002962	j	1	1	1
1	2	0.6	1	0.2	0	0	2	1	1	5	27	1	486.673806997715	k	2	1	1
1	1	0.4	0.4	0.8	0.8	0	1	1	0	5	28	0.4	522.288456006208	j	1	1	1
0	2	0	0.4	1	0.8	1	1	1	1	5	29	0.4	519.873457989888	j	1	1	1
1	1	0	0.6	0.4	1	1	1	1	1	5	30	0.6	443.833803990856	j	1	1	1
1	1	0.6	0.6	0.6	0.4	1	0	0	1	5	31	0.6	448.953507002443	j	1	1	1
0	2	0.6	0.4	0.4	0.4	1	2	1	1	5	32	0.4	463.515012001153	j	1	1	1
1	2	0.6	0.8	0.4	0.6	1	0	0	1	5	33	0.8	322.238518012455	k	2	1	1
0	1	1	0	0.6	0.6	1	2	1	0	5	34	0	458.279485988896	j	1	1	1
0	2	0.4	0.6	0.8	0.4	0	1	1	0	5	35	0.4	742.038108990528	k	2	0	0
0	1	0.4	0.2	0	0.8	0	1	1	1	5	36	0.4	400.641574990004	j	1	0	0
1	1	1	0.4	0.4	0.4	0	0	0	1	5	37	1	511.257540987572	j	1	0	1
0	1	0.8	0.4	1	0.4	1	0	0	0	5	38	0.8	619.505606009625	j	1	0	1
1	2	0.2	0.2	0.4	0	0	3	1	1	5	39	0.2	810.019334981916	k	2	0	1
0	1	0.8	0.2	0.8	1	0	1	1	0	5	40	0.2	622.01288700453	k	2	1	0
1	1	1	0.6	0.2	0.2	0	0	0	1	5	41	0.6	586.049664998427	j	1	1	1
1	2	0.4	0.4	0.2	0.8	1	2	1	1	5	42	0.4	848.397473018849	k	2	1	0
1	1	0.2	0	0.6	0.2	1	1	1	0	5	43	0.2	436.578610009747	k	2	0	0
1	1	0.8	0.2	0.2	0.4	1	0	0	1	5	44	0.8	578.012484998908	j	1	0	1
0	2	0.8	0.4	0.4	0.6	0	2	1	1	5	45	0.4	614.448002015706	j	1	1	1
1	1	0.4	0.4	0.8	0.2	1	1	1	0	5	46	0.4	650.133091985481	k	2	0	1
0	2	0.4	0.2	0.4	0.8	0	1	1	1	5	47	0.2	637.94398601749	j	1	1	1
0	1	0	0.2	0.4	0.4	1	1	1	1	5	48	0.2	804.012343025533	j	1	1	0
1	1	0.8	0.6	0.2	0.2	0	0	0	1	5	49	0.8	520.797733974177	k	2	0	0
1	2	0.4	0.2	0.2	0.4	1	2	1	1	5	50	0.4	526.156918989727	j	1	0	0
0	2	0.4	0	0.4	0.8	1	0	0	1	5	51	0	612.09960601991	k	2	1	0
0	2	0.8	0.6	0	0.4	1	0	0	0	5	52	0.8	864.553855994018	k	2	0	0
0	1	0.4	0.8	0.8	0.2	1	3	1	0	5	53	0.4	706.733667990193	j	1	0	1
1	1	0	0.6	0.4	0.8	0	0	0	1	5	54	0	489.34530801489	k	2	0	NaN
0	1	0.4	0.4	0	0.4	1	0	0	0	5	55	NaN	NaN	NaN	NaN	NaN	0
0	1	-0	1	NaN	0	0	0	0	0	5	56	1	603.387831011787	k	2	1	0
1	2	0.6	0.4	0.8	0	1	4	1	0	5	57	0.4	512.051889003487	k	2	1	0
1	1	0.6	0.6	1	NaN	0	1	1	0	5	58	0.6	692.837242997484	j	1	1	1
0	2	0	1	0.4	1	0	1	1	1	5	59	0	658.336755004711	j	1	0	0
1	2	0.6	1	0	0.6	1	0	0	1	5	60	1	783.739959006198	j	1	1	0
1	2	0.6	0.4	1	0	0	0	0	0	5	61	0.4	490.083713986678	k	2	1	1
1	1	-0	0.6	0.6	0.4	1	3	1	1	5	62	-0	878.110258025117	k	2	0	0
1	2	0.2	0.2	0.4	1	1	1	1	0	5	63	0.2	644.054452015553	j	1	0	0
0	2	0.4	1	0.2	-0	0	0	0	1	5	64	1	602.378226991277	j	1	1	0
0	1	0.2	0.4	-0	0.4	1	2	1	1	5	65	0.4	462.967147002928	j	1	1	0
1	1	0.2	0.8	0.4	1	0	0	0	1	5	66	0.8	508.362438995391	k	2	1	1
1	1	0	0	0.8	0.4	1	0	0	0	5	67	0	480.460779013811	k	2	1	1
1	1	0.4	0.4	0	0.8	1	0	0	0	5	68	0.4	547.805925016291	j	1	1	1
0	2	0.6	0.4	1	0.2	0	4	1	0	5	69	0.4	603.041430993471	k	2	1	1
0	1	0.6	0.2	0.4	0	1	1	1	0	5	70	0.6	509.591404988896	j	1	0	0
0	1	0.6	0.8	0.6	0.4	0	0	0	1	5	71	0.6	428.454768989468	k	2	0	1
1	2	0.2	0	0.4	0.4	1	2	1	1	5	72	0	592.979134991765	j	1	1	1
0	1	0.8	-0	0.6	0.6	0	1	1	0	5	73	0.8	669.56688000937	k	2	0	1
1	1	0.6	-0	0.8	0	0	0	0	1	5	74	-0	450.939253991237	j	1	1	0
0	2	0.6	0.4	0	0.6	1	2	1	1	5	75	0.4	677.874789980706	k	2	1	1
1	1	0.4	0	-0	0.8	1	1	1	0	5	76	0.4	585.923820006428	k	2	0	0
1	1	0.6	0.6	0.4	0.4	1	0	0	1	5	77	0.6	608.325200009858	j	1	0	1
0	1	0.8	0	0.6	0.4	1	0	0	0	5	78	0.8	542.854307015659	k	2	0	1
1	1	0.6	0	0.8	0.6	0	0	0	0	5	79	0.6	553.139452007599	j	1	0	1
0	1	0.4	0	0.6	0.8	1	0	0	0	5	80	0.4	365.973095991649	k	2	0	1
0	2	0.4	0.2	0.4	-0	0	5	1	1	5	81	0.4	781.267568003386	j	1	0	0
0	1	0.6	0.2	0.4	0.6	0	1	1	0	5	82	0.6	449.279508990003	k	2	0	1
1	2	0.4	0.2	0.4	0.4	1	1	1	1	5	83	0.4	581.850963004399	j	1	0	1
0	1	0.8	1	0.6	0.4	0	1	1	1	5	84	0.8	465.015050023794	k	2	0	1
0	2	0.2	0	0.4	0.6	1	1	1	1	5	85	0	621.872143994551	j	1	1	0
0	2	1	-0	0	0.8	1	0	0	1	5	86	1	387.349063996226	k	2	0	0
1	1	0	0.4	0.8	0.4	0	2	1	1	5	87	0	449.147445004201	k	2	0	1
1	1	1	0.6	0	1	1	0	0	1	5	88	1	524.278230004711	k	2	0	1
1	1	1	0.6	1	0	1	0	0	0	5	89	0.6	554.16317700292	j	1	1	0
0	2	1	0	1	0	0	3	1	0	5	90	1	775.501194002572	k	2	0	1
1	1	0.4	0.2	0.6	1	1	1	1	0	5	91	0.4	352.409787999932	k	2	0	0
0	2	1	-0	1	0.6	0	1	1	1	5	92	-0	518.800821009791	j	1	1	0
1	2	0.8	0.2	-0	0.4	0	0	0	1	5	93	0.2	466.638871992473	k	2	1	1
0	1	0.8	0	0.4	1	1	2	1	1	5	94	0.8	662.914836022537	j	1	0	1
1	2	0.6	0	0.2	-0	1	1	1	0	5	95	0.6	444.674962986028	k	2	0	0
1	1	0.4	0.6	0.8	0.2	0	1	1	1	5	96	0.4	625.141906988574	j	1	0	1
0	1	0.4	0.8	0.4	0.6	1	0	0	1	5	97	0.8	422.471010999288	k	2	1	0
1	2	0.4	0	0.6	0.8	1	2	1	1	5	98	0.4	619.557728001382	k	2	0	1
1	2	0.2	0.6	0.4	0.8	1	0	0	1	5	99	0.6	454.7752669896	j	1	1	0
1	1	0.4	0.6	0.8	0.4	0	2	1	0	5	100	0.6	508.133492985507	k	2	1	1
0	1	0.8	-0	0.6	0.6	1	0	0	1	5	101	0.8	728.132935008034	j	1	0	0
0	2	0.4	0.2	0.6	0.4	0	2	1	0	5	102	0.2	559.235307009658	k	2	1	1
0	2	0.4	0.4	0.2	0.8	1	0	0	1	5	103	0.4	586.632389982697	k	2	1	1
1	1	0.8	0.6	0.8	0.6	0	2	1	0	5	104	0.8	472.117072989931	j	1	0	1
0	1	0.8	0.4	0.8	0.4	1	0	0	1	5	105	0.8	539.981304988032	k	2	0	1
0	2	0.6	0	0.4	0.2	0	2	1	0	5	106	0.6	608.863119996386	j	1	0	0
0	2	0.6	0	0.6	0.8	0	0	0	1	5	107	0	520.581925025908	k	2	1	0
0	1	0.6	0.8	0.8	0.8	0	2	1	0	5	108	0.6	620.571564999409	j	1	0	1
0	1	0.4	1	0.6	0	0	0	0	1	5	109	0.4	520.40535301785	j	1	0	1
1	2	1	0.2	0	0.6	0	2	1	0	5	110	1	454.546663007932	j	1	0	0
0	2	0.4	0.4	1	0.4	1	0	0	1	5	111	0.4	681.157787010306	k	2	0	1
1	1	0.2	0.4	0.4	0.6	0	2	1	0	5	112	0.2	599.949677009135	j	1	0	1
1	2	0.6	0.2	0.4	1	1	1	1	0	5	113	0.6	555.649065994658	j	1	0	1
0	2	0.4	0.6	0.6	0.2	1	0	0	1	5	114	0.4	792.780519986991	k	2	0	1
0	2	1	0	0.4	0.6	1	0	0	0	5	115	1	622.372280980926	k	2	0	1
1	2	0.4	-0	1	0.4	0	0	0	0	5	116	0.4	418.895589013118	j	1	0	1
0	2	0.8	0	0.4	1	1	0	0	0	5	117	0.8	543.890545988688	k	2	0	1
1	1	0.4	0.8	0.2	0.4	1	5	1	1	5	118	0.4	675.737148005283	j	1	0	1
1	1	0.2	1	0.4	0.8	1	0	0	1	5	119	1	601.062995992834	j	1	1	0
0	2	0.4	0.4	0.8	0.4	0	2	1	0	5	120	0.4	831.210860022111	k	2	0	1
1	1	-0	0.2	1	0.4	1	1	1	0	5	121	0.2	426.599450991489	j	1	1	1
0	1	0.2	0.8	0.2	0.4	1	0	0	1	5	122	0.8	702.908898005262	j	1	1	1
1	2	0	0	0.4	1	1	2	1	1	5	123	0	627.724657009821	k	2	0	1
0	1	0.6	0.4	0.8	0.2	0	1	1	0	5	124	0.6	817.853972985176	j	1	0	0
0	2	0.4	0.4	0	0.8	0	1	1	1	5	125	0.4	365.048770996509	k	2	0	1
1	1	0.2	0.8	0.6	0	0	1	1	1	5	126	0.2	729.73446600372	j	1	0	1
1	1	0.4	0.2	0.2	0.4	1	0	0	1	5	127	0.2	839.287431008415	j	1	1	0
0	2	-0	0.6	0.4	0.6	1	2	1	1	5	128	-0	532.898801990086	j	1	0	1
1	1	-0	0.4	0.2	0.2	1	1	1	0	5	129	-0	417.206426005578	k	2	0	0
1	1	0	0.2	-0	-0	1	0	0	1	5	130	0.2	535.047735989792	j	1	1	0
1	2	-0	0.4	-0	0.2	0	2	1	1	5	131	-0	603.012940002372	j	1	0	1
1	2	0.4	0.6	-0	0.2	0	0	0	1	5	132	0.4	512.072031007847	j	1	0	1
1	2	0.8	0.4	0.4	-0	0	0	0	0	5	133	0.4	629.755536996527	j	1	1	0
1	2	0.2	0.6	0.4	0.4	1	0	0	0	5	134	0.2	489.209363993723	j	1	0	0
0	1	0.2	0.8	0.2	-0	1	4	1	0	5	135	0.2	798.404687986476	j	1	0	0
0	1	0.4	1	0.2	0.2	0	0	0	1	5	136	1	435.153881000588	j	1	1	0
1	1	0.2	0.6	1	0.2	0	0	0	0	5	137	0.6	471.364619996166	k	2	1	1
0	1	0.2	0	0.6	1	1	0	0	0	5	138	0	509.345172991743	k	2	1	1
0	2	1	0.4	0.2	0.4	1	4	1	0	5	139	0.4	648.87799200369	k	2	1	0
1	2	0.2	0.8	0.4	0	1	0	0	1	5	140	0.8	711.90123699489	j	1	1	1
0	2	0.8	-0	0.8	0.4	1	0	0	0	5	141	-0	483.57505700551	k	2	1	1
0	2	1	0.6	-0	0.8	0	0	0	0	5	142	0.6	465.637580986368	k	2	1	1
1	1	0.2	0.2	0	0.6	0	4	1	0	5	143	0.2	420.792590011843	j	1	1	1
0	1	0.6	-0	0.2	0.6	1	0	0	1	5	144	-0	467.860864009708	k	2	1	1
0	1	1	0.2	-0	0.2	0	0	0	0	5	145	0.2	927.206741995178	j	1	1	1
1	2	1	0.2	0.6	-0	0	3	1	0	5	146	0.2	705.766454018885	j	1	1	1
0	2	0.6	0.6	0.2	0.2	1	0	0	1	5	147	0.6	384.036843985086	k	2	0	0
0	2	0.8	1	0.6	0.2	1	0	0	0	5	148	0.8	444.246405008016	k	2	0	1
1	1	0.6	1	0.2	-0	0	3	1	0	5	149	0.6	385.377219005022	k	2	0	0
0	2	1	0.2	0.8	0.6	1	1	1	0	5	150	1	559.832865983481	k	2	0	1
0	2	0	0.4	1	0.6	1	0	0	1	5	151	0	468.965798005229	k	2	0	1
0	2	0.6	0.6	0	1	0	0	0	0	5	152	0.6	537.30770299444	j	1	0	1
0	1	0.8	0.2	0.6	0.8	1	3	1	1	5	153	0.8	495.197589014424	k	2	0	1
1	2	0.6	0.4	0.6	0	0	1	1	0	5	154	0.6	569.771200011019	k	2	0	1
0	1	0.6	0.4	0.8	0.6	0	1	1	1	5	155	0.6	528.890748013509	k	2	0	1
1	2	1	0.6	0.6	0.8	1	1	1	1	5	156	1	467.884978017537	j	1	0	1
0	2	0.2	0.6	1	0.6	0	0	0	1	5	157	0.2	375.597553007537	k	2	0	1
0	1	0.8	0.4	0.6	0.6	0	2	1	1	5	158	0.8	382.524979009759	k	2	0	1
0	2	1	0.6	0.2	1	1	1	1	0	5	159	1	602.133583975956	j	1	0	1
1	2	0.4	0.6	1	0.8	0	0	0	1	5	160	0.4	528.344083984848	j	1	0	1
0	1	0	0.4	0.8	0.2	0	2	1	1	5	161	0	458.915717987111	j	1	0	1
1	2	0.6	0.6	0.4	1	0	1	1	0	5	162	0.6	552.513157017529	k	2	1	0
1	2	0.4	0.4	0.6	0	1	0	0	1	5	163	0.4	486.162949004211	j	1	0	0
0	2	0.4	0.8	0.4	0.6	0	0	0	0	5	164	0.4	515.689571999246	k	2	0	1
0	2	0.6	0.4	0.4	0.4	0	0	0	0	5	165	0.4	584.094204008579	j	1	1	0
1	2	0.6	0.4	0.4	0.4	0	0	0	0	5	166	0.4	412.156935984967	k	2	1	1
0	1	-0	0.6	0	0.4	0	5	1	1	5	167	0.6	544.497468014015	j	1	1	0
0	1	0.6	0.8	0.6	0.4	0	0	0	1	5	168	0.6	453.24303698726	j	1	0	0
0	2	0.4	0	0.4	0.4	0	2	1	0	5	169	0.4	523.357184021734	k	2	0	0
1	1	0.6	0.6	0.6	0.6	0	1	1	0	5	170	0.6	496.298007987207	k	2	0	1
0	2	-0	0.6	0.4	0.6	0	1	1	1	5	171	0.6	405.583439976908	k	2	1	0
1	1	0	1	0.6	0.4	1	1	1	1	5	172	0	656.172210001387	j	1	0	1
0	1	0	0.4	0	0.6	1	0	0	1	5	173	0.4	598.527666996233	k	2	1	0
1	2	0.6	0.4	0.6	0.6	0	2	1	1	5	174	0.4	481.84649500763	k	2	1	1
0	1	0.2	0.4	0.4	0	0	1	1	0	5	175	0.2	342.005631013308	j	1	0	0
0	1	0.8	0.4	0.2	0.4	0	0	0	1	5	176	0.4	454.280731006293	k	2	1	0
0	1	0.2	0	0.4	0.2	0	0	0	0	5	177	0	376.561864977702	k	2	1	1
0	1	0.8	0.8	0	0.4	0	0	0	0	5	178	0.8	423.449469002662	j	1	0	0
1	2	0.6	0.2	0.4	0.4	1	4	1	1	5	179	0.6	545.350238971878	j	1	0	0
0	1	0.2	0.4	0.8	0	0	1	1	0	5	180	0.2	591.211289982311	k	2	0	1
1	2	0.4	0.2	0.6	0.8	1	1	1	1	5	181	0.2	445.414168003481	k	2	1	0
1	2	0	0.4	0.2	0.2	0	0	0	1	5	182	0	787.902660988038	j	1	0	0
0	2	0.4	1	0	0.2	0	0	0	0	5	183	0.4	471.794362005312	k	2	0	1
0	1	0.4	0.4	0.2	0.6	0	3	1	1	5	184	0.4	596.224766981322	j	1	0	1
0	1	0.6	0.4	0.4	0.4	0	0	0	1	5	185	0.4	409.675272007007	j	1	1	0
1	2	0.8	1	0.4	0	0	2	1	0	5	186	1	590.349182981299	j	1	1	0
0	2	0	0.6	1	0.4	0	0	0	1	5	187	0.6	419.422698993003	k	2	1	1
0	1	0.8	0.6	0.4	0.4	0	2	1	0	5	188	0.8	590.595986985136	j	1	0	0
1	1	0.6	0	0.8	0.6	0	0	0	1	5	189	0.6	626.789561007172	j	1	0	1
1	2	0.4	1	0.6	1	0	2	1	0	5	190	1	432.891698990716	k	2	1	1
0	2	0	0.4	1	0.6	0	0	0	1	5	191	0.4	510.822790005477	k	2	1	1
0	1	0.4	0	0.6	0.8	1	2	1	0	5	192	0.4	883.501809003064	k	2	0	1
0	2	0.2	0.8	0.4	1	0	1	1	0	5	193	0.8	447.618014994077	j	1	1	1
0	1	1	0.4	0.4	0.4	0	1	1	1	5	194	1	508.155930001521	j	1	0	1
0	2	0	1	0.8	0.4	0	1	1	1	5	195	1	361.199798004236	k	2	1	1
1	2	0.4	0.8	1	1	0	0	0	1	5	196	0.8	581.872530019609	j	1	1	1
1	2	0.4	0.6	0.8	1	1	0	0	0	5	197	0.6	450.787562993355	k	2	1	1
0	2	0.6	0.8	0.6	0.8	0	0	0	0	5	198	0.8	439.117351023015	j	1	1	1
1	2	0.4	0.4	0.8	0.6	0	0	0	0	5	199	0.4	436.439047014574	j	1	1	1
0	1	1	0.6	1	0.8	0	5	1	1	5	200	1	602.942382014589	k	2	0	1
0	2	0	0.8	0.4	0.8	0	1	1	0	5	201	0.8	583.443467010511	j	1	1	1
0	2	0.6	1	0.8	1	1	0	0	1	5	202	1	386.794780002674	k	2	1	1
0	2	0.6	1	1	0.8	1	0	0	0	5	203	1	393.092131998856	k	2	1	1
1	2	-0	-0	1	1	0	0	0	0	5	204	-0	459.876431996236	j	1	1	1
1	2	0.8	0.8	-0	1	1	0	0	0	5	205	0.8	507.809798989911	j	1	1	1
1	1	0.6	0.6	1	0.4	0	5	1	1	5	206	0.6	429.245358012849	j	1	0	1
1	1	0	0.6	0.6	0.8	1	0	0	1	5	207	0	411.864538007649	k	2	0	1
0	1	0.2	0.4	0	0.6	1	0	0	0	5	208	0.4	456.960642011836	k	2	1	0
1	1	0.6	0.6	0.4	0	0	0	0	0	5	209	0.6	444.650536985137	j	1	0	0
1	1	0.8	0	0.6	0.4	1	0	0	0	5	210	0.8	387.526227976196	j	1	0	1
1	2	0.8	0.8	0.8	-0	1	5	1	0	5	211	0.8	584.118575003231	k	2	1	1
1	2	0.8	0.4	0.8	0.8	0	0	0	1	5	212	0.4	443.41015900136	j	1	1	1
1	2	0	0.4	0.4	0.8	0	0	0	0	5	213	0.4	496.139808004955	j	1	1	1
0	2	0.4	0.2	0.4	0.4	1	0	0	0	5	214	0.4	533.719641010975	k	2	0	0
1	2	0	0	0.4	0.4	1	0	0	0	5	215	0	514.588993013604	j	1	0	1
0	1	0.4	0.4	0.8	0.6	1	5	1	0	5	216	0.4	605.796016025124	j	1	0	1
