MatOldNew	PairNum	Deck1Feedback	Deck2Feedback	Pay1Back	Pay1BackTrial	Mat1Back	DelayDecks	SwitchDecks	Switch1Back	Sub	Trial	RT	Resp	ChosenSide	choice	Stay
0	1	0.6	0.8	NaN	NaN	NaN	NaN	NaN	NaN	1	1	457.019113004208	j	1	0	NaN
0	2	0.6	0.2	NaN	NaN	NaN	1	1	NaN	1	2	561.763219535351	j	1	1	NaN
1	2	0.2	0.6	0.2	0.6	0	0	0	1	1	3	411.744585260749	j	1	0	0
0	1	0	0.6	0.6	NaN	0	2	1	NaN	1	4	NaN	NaN	NaN	NaN	0
0	2	0	1	0.2	0.2	0	1	1	0	1	5	503.23667190969	k	2	1	0
1	2	-0	0.8	1	NaN	0	0	0	1	1	6	478.70965488255	j	1	0	0
0	1	0.2	0.4	NaN	0.2	0	2	1	1	1	7	672.883003950119	k	2	0	0
1	1	0	0.6	0.2	-0	0	0	0	1	1	8	651.167703792453	j	1	0	1
1	2	0	1	-0	1	1	2	1	0	1	9	595.427667722106	j	1	1	0
1	2	0.2	1	1	0	1	0	0	1	1	10	542.02526062727	j	1	1	1
1	1	0.4	0.6	0	0.2	1	2	1	0	1	11	813.800869509578	j	1	1	0
1	1	0.4	0.2	0.6	1	1	0	0	1	1	12	494.980165734887	j	1	1	1
0	2	0.2	0.8	1	1	1	2	1	0	1	13	390.899617224932	k	2	1	1
1	1	0.4	0.6	0.2	0.6	1	1	1	0	1	14	402.155559509993	k	2	1	1
1	1	0.4	0	0.6	0.8	1	0	0	1	1	15	531.385472044349	k	2	1	1
1	2	0.4	1	0.8	0.2	1	2	1	1	1	16	422.471405938268	j	1	1	1
1	2	0.4	1	1	0	1	0	0	1	1	17	574.681732803583	j	1	1	1
0	1	0.2	0.8	0	0.6	1	2	1	0	1	18	375.937208533287	j	1	1	1
1	1	0.4	0.6	0.8	1	0	0	0	1	1	19	578.370308503509	k	2	1	1
1	2	0.2	0.6	1	1	0	2	1	0	1	20	683.150513097644	k	2	1	1
0	1	0	0.6	0.6	0.8	1	1	1	0	1	21	554.358975961804	k	2	1	1
1	1	0	0.6	0.6	0.6	0	0	0	1	1	22	517.052065581083	j	1	1	1
0	2	1	0.6	0.6	0.6	1	2	1	1	1	23	622.344952076674	j	1	1	1
1	1	0.4	0.8	0.6	0.6	1	1	1	0	1	24	655.924528837204	k	2	1	1
0	2	0.8	0.4	0.6	0.6	0	1	1	1	1	25	408.010510727763	k	2	1	1
0	1	0.4	0.6	0.8	0.6	1	1	1	1	1	26	426.136899739504	j	1	1	1
1	2	0.2	0.6	0.4	0.8	1	1	1	1	1	27	460.794439539313	j	1	1	1
0	2	0.8	0.8	0.6	0.6	1	0	0	1	1	28	580.302791669965	j	1	1	1
1	1	0.6	0.6	0.6	0.4	0	2	1	1	1	29	460.864786058664	k	2	1	1
0	1	0.4	0.4	0.6	0.8	1	0	0	1	1	30	454.147882759571	k	2	1	1
0	1	0.8	0	0.4	0.6	0	0	0	0	1	31	530.051965266466	j	1	0	0
1	2	0.4	0.8	0.8	0.6	0	3	1	0	1	32	400.495922192931	k	2	1	1
1	1	0.4	0.4	0.8	0.4	0	1	1	0	1	33	659.506227821112	k	2	0	1
0	2	0	0	0.8	0.8	1	1	1	1	1	34	454.343222081661	j	1	1	1
1	1	1	0.2	0.4	0.8	1	1	1	1	1	35	469.993880018592	k	2	0	1
1	1	0.8	0.4	1	0	1	0	0	1	1	36	541.990742087364	k	2	0	1
0	2	0.4	0.2	0	0.4	0	2	1	1	1	37	456.498978659511	k	2	0	0
1	2	-0	0.4	0.4	0.8	0	0	0	1	1	38	852.010808885098	j	1	0	1
1	1	0.4	0	0.8	1	1	2	1	0	1	39	493.331393226981	k	2	0	1
1	2	0.8	0.4	-0	0.4	1	1	1	0	1	40	382.991664111614	k	2	1	0
0	1	0.4	0.4	0.4	-0	1	1	1	1	1	41	528.054116293788	j	1	0	1
1	1	0.2	-0	0.4	0.4	0	0	0	1	1	42	592.547550797462	k	2	1	0
1	2	0.6	0.6	0.4	0.4	1	2	1	1	1	43	466.257987543941	j	1	1	1
1	1	0.6	0.6	-0	0.4	1	1	1	0	1	44	403.257934376597	k	2	1	1
1	2	0.4	0.2	0.6	-0	1	1	1	1	1	45	491.808550432324	k	2	1	1
0	1	0.4	0.2	0.6	0.6	1	1	1	1	1	46	428.46361733973	k	2	1	1
0	2	0.4	0.6	0.2	0.6	1	1	1	1	1	47	599.343860521913	j	1	0	0
1	2	0.6	0	0.4	0.2	0	0	0	1	1	48	551.220700144768	j	1	0	1
1	2	1	0.4	0.6	0.4	1	0	0	0	1	49	423.962043598294	j	1	0	1
1	2	0.6	0.6	1	0.6	1	0	0	0	1	50	440.984893590212	j	1	0	1
0	1	0.4	1	0.2	0.2	0	4	1	1	1	51	541.173368692398	j	1	0	0
0	2	0.8	0.2	0.6	1	0	1	1	0	1	52	492.8980153054	j	1	0	1
1	1	-0	0.6	0.4	0.6	0	1	1	1	1	53	445.418206974864	j	1	0	1
0	2	0.2	0.4	0.8	0.4	0	1	1	1	1	54	494.838880375028	j	1	0	1
0	1	0.6	1	-0	0.8	1	1	1	1	1	55	400.014350190759	j	1	1	0
0	1	0.2	0.4	1	0.2	0	0	0	1	1	56	457.395019009709	j	1	1	1
0	1	0.4	1	0.4	1	0	0	0	0	1	57	453.661616891623	j	1	1	1
0	1	0	0.4	1	0.4	0	0	0	0	1	58	420.727510005236	j	1	1	1
0	2	0.4	0.8	0.2	-0	1	4	1	1	1	59	509.716402739286	k	2	1	0
0	1	0.4	0.4	0.4	1	0	1	1	0	1	60	440.278014168143	k	2	0	0
0	2	0.2	0.4	0.8	0.4	0	1	1	1	1	61	543.179588392377	k	2	1	1
0	1	0.4	1	0.4	0.8	0	1	1	1	1	62	434.870509430766	j	1	0	1
1	2	0.2	0	0.4	0.4	0	1	1	1	1	63	411.382358521223	j	1	1	1
0	2	0.4	0.2	0	0.4	0	0	0	1	1	64	829.291889443994	j	1	1	1
1	1	0.4	0.4	0.4	0.4	0	2	1	1	1	65	494.454327970743	j	1	1	0
0	1	0.4	0.8	0.4	0.2	1	0	0	1	1	66	638.899650424719	j	1	1	1
1	2	0.4	-0	0.2	0	0	2	1	0	1	67	505.795858800411	j	1	0	0
1	1	0.4	0.8	0.8	0.4	0	1	1	0	1	68	617.413712665439	j	1	1	1
0	2	0.8	-0	0.4	0.8	0	1	1	1	1	69	386.658973991871	k	2	1	0
0	2	0.4	0	-0	0.8	0	0	0	1	1	70	405.279221013188	k	2	1	1
1	2	0	-0	0	-0	1	0	0	0	1	71	470.406986773014	j	1	0	0
0	2	0.6	0	0	0	0	0	0	0	1	72	607.361664995551	k	2	0	1
1	1	0.4	0.2	0.8	0.4	1	4	1	1	1	73	928.244723007083	k	2	1	1
0	2	0.4	0.2	0.6	0	1	1	1	0	1	74	634.90897975862	j	1	1	0
0	2	0.8	0.6	0.2	0.2	1	0	0	1	1	75	426.444783806801	j	1	0	0
0	2	0.2	0	0.8	0.2	1	0	0	0	1	76	357.86266438663	j	1	0	1
0	2	1	0.2	0.2	0.8	0	0	0	0	1	77	382.383439689875	k	2	0	1
1	1	0.2	0.4	0.2	0.6	1	4	1	1	1	78	879.349628463387	j	1	0	0
1	2	1	0.6	1	0.2	1	1	1	0	1	79	449.220301583409	j	1	0	1
0	1	1	0.4	0.2	1	1	1	1	1	1	80	651.578364893794	j	1	0	1
1	1	1	0.2	1	1	0	0	0	1	1	81	500.867558643222	k	2	0	1
0	2	0.2	0.2	1	0.2	0	2	1	1	1	82	587.905284017324	j	1	0	1
1	2	1	0	0.2	1	0	0	0	1	1	83	567.549919709563	j	1	0	1
0	1	0.8	-0	1	1	1	2	1	0	1	84	567.164964973927	k	2	0	1
1	2	0.8	0	1	0.2	0	1	1	0	1	85	512.457314878702	j	1	0	1
1	2	0.8	0	0.8	0.8	0	0	0	1	1	86	419.177047908306	k	2	0	1
0	1	0.4	0.4	0.8	1	0	2	1	1	1	87	485.118363052607	k	2	0	1
0	2	0.6	0.8	0.8	0.8	0	1	1	0	1	88	420.680237933993	j	1	0	1
0	2	0.4	0	0.6	0.4	0	0	0	1	1	89	493.438160046935	j	1	0	1
0	1	0.2	0.4	0.4	0.8	0	2	1	1	1	90	417.0374982059	j	1	0	1
0	2	0.4	0.2	0.4	0.6	0	1	1	0	1	91	727.305356413126	k	2	0	1
0	2	0.6	0	0.4	0.2	1	0	0	1	1	92	544.147383421659	j	1	0	1
0	2	0.4	-0	0.6	0.4	1	0	0	0	1	93	401.311997324228	j	1	0	1
0	1	0.2	0	0.2	0.4	0	3	1	1	1	94	435.597289353609	k	2	0	1
0	1	1	0.2	0.2	0.4	0	0	0	1	1	95	532.624555751681	k	2	0	1
0	1	1	0	1	0.2	0	0	0	0	1	96	446.830088272691	k	2	0	1
0	2	0.6	0	0.4	0.6	0	3	1	0	1	97	567.611852660775	j	1	0	1
0	1	0.8	0.2	1	1	0	1	1	0	1	98	521.220494061708	j	1	0	1
1	1	0.8	0.6	0.8	0.6	0	0	0	1	1	99	513.175755739212	j	1	0	1
0	2	0.4	0.4	0.6	1	1	2	1	1	1	100	400.886129587889	k	2	0	1
1	1	1	0.6	0.8	0.8	1	1	1	0	1	101	515.040339902043	j	1	0	1
0	2	0.6	0.6	0.4	0.8	1	1	1	1	1	102	342.335816472769	k	2	1	0
0	2	0.4	-0	0.6	1	1	0	0	1	1	103	718.697292730212	j	1	0	0
0	1	0.6	0.4	1	0.4	1	2	1	1	1	104	472.353516146541	k	2	0	1
1	1	0.6	0.8	0.6	0.4	0	0	0	1	1	105	472.794255241752	j	1	0	1
1	2	1	0	0.4	0.6	1	2	1	0	1	106	633.99706967175	k	2	0	1
1	1	0.8	0.2	0.6	0.6	1	1	1	0	1	107	541.0086940974	j	1	0	1
1	2	0.6	0	1	0.6	0	1	1	1	1	108	371.734263375401	k	2	0	1
1	2	0.4	0.4	0.6	0.8	0	0	0	1	1	109	405.456453561783	k	2	0	1
1	1	0.6	0.8	0.8	1	1	2	1	1	1	110	472.757430747151	k	2	0	1
1	1	0.6	0.4	0.6	0.4	1	0	0	1	1	111	376.080708578229	j	1	0	1
0	2	-0	0	0.4	0.6	0	2	1	0	1	112	539.863662794232	j	1	0	1
0	2	0	0.6	-0	0.6	0	0	0	1	1	113	508.811349049211	j	1	1	0
0	2	0.2	0.2	0.6	-0	0	0	0	0	1	114	508.651480078697	k	2	1	1
0	1	1	0.4	0.6	0.6	1	3	1	0	1	115	654.264068230987	k	2	1	0
0	1	0.6	0.6	0.4	0.2	0	0	0	1	1	116	473.35328347981	k	2	1	1
0	2	0.2	0.8	0.2	0.6	1	2	1	0	1	117	472.416551783681	j	1	1	1
1	2	0.4	0	0.8	0.6	0	0	0	1	1	118	617.089627310634	j	1	1	1
1	2	0.2	0.6	0	0.8	1	0	0	0	1	119	429.313892498612	j	1	1	1
0	1	0.2	0.4	0.6	0.4	0	3	1	0	1	120	365.206383168697	k	2	1	1
0	1	0	0.4	0.4	0.6	0	0	0	1	1	121	456.549406051636	k	2	1	1
0	1	0.2	0.6	0.4	0.4	0	0	0	0	1	122	521.273199468851	k	2	1	1
1	1	0.6	0.6	0.6	0.4	0	0	0	0	1	123	552.294174209237	j	1	1	1
0	1	0.6	0.6	0.6	0.6	1	0	0	0	1	124	484.323600307107	k	2	1	1
0	2	0.2	0.4	0.6	0	0	5	1	0	1	125	555.045336484909	j	1	1	1
1	1	0.2	0.8	0.6	0.6	0	1	1	0	1	126	606.505300849676	k	2	1	1
0	1	0.2	1	0.8	0.4	1	0	0	1	1	127	598.456939682364	j	1	1	1
0	2	0.6	0.4	0.4	0.6	1	2	1	1	1	128	600.624850019813	k	2	1	1
1	1	0.2	0.6	1	0.8	0	1	1	0	1	129	441.937288269401	j	1	1	1
1	2	1	0.2	0.4	1	0	1	1	1	1	130	692.218348383904	k	2	1	1
0	2	0.4	0.8	0.2	0.6	0	0	0	1	1	131	451.715394854546	j	1	0	0
1	2	1	0.2	0.4	0.2	1	0	0	0	1	132	516.065439209342	j	1	0	1
1	2	1	1	1	0.4	0	0	0	0	1	133	415.93818180263	k	2	0	1
0	1	0.2	0.8	0.6	0.4	1	4	1	1	1	134	424.115201458335	k	2	0	0
1	2	0.8	0.2	1	1	1	1	1	0	1	135	552.697710692883	j	1	0	1
0	1	0.8	0.6	0.2	1	0	1	1	1	1	136	459.223564714193	j	1	0	1
0	2	0.8	0.4	0.8	0.2	0	1	1	1	1	137	444.317642599344	k	2	0	1
0	2	0.4	0.8	0.8	0.8	0	0	0	1	1	138	541.772829368711	j	1	0	1
1	1	0.2	1	0.8	0.8	0	2	1	1	1	139	839.834107086062	j	1	0	1
1	2	0.6	1	0.4	0.8	1	1	1	0	1	140	593.299992382526	j	1	0	1
0	1	0.6	0	0.2	0.4	1	1	1	1	1	141	570.237500593066	k	2	1	0
1	2	0.4	0.4	0.6	0.2	0	1	1	1	1	142	585.95615439117	k	2	0	1
1	1	0.4	0.6	0	0.6	0	1	1	1	1	143	539.604913443327	k	2	0	0
0	2	1	0.2	0.4	0	0	1	1	1	1	144	492.441749200225	j	1	0	1
0	2	0.6	0.4	1	0.4	0	0	0	1	1	145	613.818939775229	k	2	0	1
1	2	0.8	0.6	0.6	1	1	0	0	0	1	146	465.355444699526	k	2	0	1
0	1	0.6	0.8	0.4	0.4	1	3	1	1	1	147	458.334516733885	k	2	0	1
1	2	0	0.8	0.8	0.6	1	1	1	0	1	148	450.483083724976	j	1	0	1
0	2	0.8	1	0	0.6	0	0	0	1	1	149	597.530785948038	k	2	0	1
0	1	0.6	0.6	0.6	0.8	0	2	1	1	1	150	532.15866163373	j	1	0	1
0	2	0.4	0.6	0.8	0	0	1	1	0	1	151	480.298196896911	j	1	0	1
1	1	0	0.8	0.6	0.8	0	1	1	1	1	152	447.618156671524	k	2	0	1
0	2	0.4	0.4	0.4	0.6	0	1	1	1	1	153	362.180195748806	k	2	1	0
0	1	-0	0.4	0	0.4	1	1	1	1	1	154	737.992143258452	k	2	1	0
0	1	0.4	0.6	0.4	0.4	0	0	0	1	1	155	516.087748110294	j	1	1	1
0	1	0.2	0	0.6	0.4	0	0	0	0	1	156	556.179504841566	j	1	1	1
0	2	0.6	0.4	0.4	0	0	3	1	1	1	157	454.171003773808	j	1	1	1
1	1	0.2	0.6	0	0.6	0	1	1	0	1	158	465.611403807998	k	2	1	1
1	1	0.8	0.8	0.6	0.4	1	0	0	1	1	159	521.472051739693	j	1	1	1
0	1	0.6	-0	0.8	0.6	1	0	0	0	1	160	492.117252200842	j	1	1	1
0	1	1	0.4	-0	0.8	0	0	0	0	1	161	412.935404106975	j	1	0	0
0	1	0.4	0.4	1	-0	0	0	0	0	1	162	349.374189972878	j	1	0	1
0	2	0.2	0.8	0.4	0	1	5	1	1	1	163	623.833199962974	j	1	0	0
1	2	0.2	0.2	0.2	0.4	0	0	0	1	1	164	776.877937838435	k	2	0	1
0	1	1	-0	0.4	1	0	2	1	0	1	165	723.535023629665	j	1	1	0
0	2	0	0.4	0.2	0.2	1	1	1	0	1	166	498.289059847593	j	1	1	0
1	1	1	0.4	-0	0.2	0	1	1	1	1	167	373.19627776742	k	2	0	0
0	1	-0	0	1	0.4	1	0	0	1	1	168	468.596398830414	j	1	0	1
1	2	0.6	1	0.4	-0	1	2	1	1	1	169	720.506647601724	j	1	1	1
1	1	0.8	-0	-0	1	0	1	1	0	1	170	503.205137327313	k	2	0	1
1	1	0.4	0.4	0.8	1	1	0	0	1	1	171	456.746032461524	j	1	0	1
0	1	0.4	0.4	0.4	0.8	1	0	0	0	1	172	722.437981516123	k	2	0	1
0	2	0	0.6	1	-0	0	3	1	1	1	173	549.671644344926	k	2	1	1
1	1	0.8	1	0.4	0.4	0	1	1	0	1	174	542.252773419023	k	2	0	1
1	2	0.4	0.4	0.6	0.4	1	1	1	1	1	175	486.989755183458	j	1	0	0
1	2	0.6	0.4	0.4	0.8	0	0	0	1	1	176	521.850181743503	j	1	0	1
0	1	1	1	0.8	0.6	1	2	1	1	1	177	539.153611287475	k	2	0	1
1	1	0	0.4	1	0.6	0	0	0	1	1	178	554.749241098762	j	1	0	1
0	2	0.6	0.6	0.6	0.4	1	2	1	0	1	179	502.007886767387	j	1	0	1
0	2	0.4	0.2	0.6	0	1	0	0	1	1	180	557.377517223358	j	1	0	1
0	2	0.2	1	0.4	0.6	0	0	0	0	1	181	496.492374688387	j	1	1	0
1	1	0.2	0.2	0	1	1	3	1	0	1	182	409.794008359313	j	1	1	0
0	1	0.4	0	0.2	1	1	0	0	1	1	183	412.44556568563	j	1	1	1
1	2	0.2	1	1	0.4	1	2	1	0	1	184	486.400108784437	j	1	1	1
1	1	0.8	0.4	0	0.2	0	1	1	0	1	185	479.514088481665	k	2	0	0
0	1	0	1	0.8	1	1	0	0	1	1	186	464.319555088878	k	2	0	1
1	2	0.4	0.8	1	0	0	2	1	1	1	187	465.562719851732	j	1	1	1
0	1	0.4	0.4	0	0.8	0	1	1	0	1	188	394.498124718666	k	2	0	1
1	2	0.4	0.8	0.8	0	0	1	1	1	1	189	547.683967277408	j	1	0	0
1	1	0.6	0.2	0.4	0.8	0	1	1	1	1	190	407.060099765658	k	2	0	1
0	1	0.8	0.6	0.6	0.4	1	0	0	1	1	191	421.636942774057	j	1	0	1
0	2	0	1	0.4	0.4	1	2	1	1	1	192	423.107143491507	k	2	1	0
1	2	0.4	1	1	0.8	0	0	0	1	1	193	393.070200458169	k	2	1	1
0	2	0.6	1	1	1	0	0	0	0	1	194	611.377691850066	k	2	1	1
1	2	-0	0	1	1	0	0	0	0	1	195	539.402719587088	j	1	1	1
0	1	1	0.4	0.8	0.6	0	4	1	0	1	196	613.023512065411	k	2	0	1
0	1	0.4	0.2	1	0	0	0	0	1	1	197	462.289873510599	j	1	0	1
1	2	0	0.8	0	1	1	2	1	0	1	198	535.563027486205	k	2	1	1
1	1	0.2	0	0.4	1	0	1	1	0	1	199	457.111839205027	j	1	0	1
0	2	0.2	0.8	0.8	0.4	1	1	1	1	1	200	584.975242614746	j	1	1	1
1	1	0.8	0.2	0.2	0.8	1	1	1	1	1	201	539.871068671346	k	2	0	1
1	2	0.6	0.8	0.8	0.2	1	1	1	1	1	202	605.888022109866	j	1	1	1
1	2	0.8	0.4	0.8	0.8	0	0	0	1	1	203	749.984150752425	k	2	1	1
1	1	0.4	0.4	0.8	0.8	1	2	1	1	1	204	454.455137252808	k	2	0	1
0	2	0.2	0.4	0.4	0.8	0	1	1	0	1	205	368.018958717585	k	2	1	1
0	1	0.2	0	0.4	0.4	1	1	1	1	1	206	467.750228941441	j	1	0	1
1	2	0	0.8	0.4	0.4	1	1	1	1	1	207	354.7408208251	j	1	0	0
0	1	0.6	0.6	0.2	0.4	0	1	1	1	1	208	751.123834401369	k	2	1	0
1	1	0.6	0.4	0.6	0	0	0	0	1	1	209	549.873450770974	j	1	1	1
0	2	0.2	0.6	0	0.2	1	2	1	1	1	210	737.456833943725	k	2	0	1
1	2	0.4	0.6	0.2	0.4	1	0	0	1	1	211	730.459023267031	k	2	1	0
1	1	0.8	0.2	0.4	0.6	1	2	1	0	1	212	426.777305081487	j	1	1	1
1	2	0.2	0.8	0.6	0.2	1	1	1	0	1	213	779.901448637247	k	2	0	0
1	2	0	0.4	0.2	0.2	0	0	0	1	1	214	422.883974388242	j	1	1	0
1	1	0.6	0.2	0.2	0.6	1	2	1	1	1	215	495.727676898241	j	1	0	0
1	1	0.4	0	0.6	0.4	1	0	0	1	1	216	496.732383966446	j	1	0	1
0	1	0.6	0.8	0.4	0.6	1	0	0	0	1	217	394.592773169279	j	1	0	1
1	1	0.8	0.6	0.6	0.4	0	0	0	0	1	218	450.79493150115	k	2	0	1
1	2	0.2	0.4	0.4	0.2	1	4	1	0	1	219	748.164063319564	j	1	1	1
1	2	0.2	0.2	0.4	0.8	0	0	0	1	1	220	571.966866031289	j	1	1	1
0	1	0.6	1	0.8	0.6	1	2	1	0	1	221	430.996363982558	j	1	0	1
0	2	0	0.4	0.2	0.4	1	1	1	0	1	222	928.555704653263	j	1	0	0
0	2	0	0.6	0	0.6	0	0	0	1	1	223	385.112062096596	k	2	1	0
1	1	0	0.6	0.6	0.2	0	2	1	1	1	224	489.28957991302	k	2	1	0
1	2	0.2	0.2	0.6	0	0	1	1	0	1	225	564.015712589025	j	1	1	1
0	1	0.2	0.2	0.6	0.6	1	1	1	1	1	226	645.07713727653	j	1	1	1
1	2	0.2	0	0.2	0.6	1	1	1	1	1	227	784.017080441117	k	2	0	0
1	2	0.4	0.2	0.2	0.2	1	0	0	1	1	228	583.40921998024	j	1	1	0
1	2	0.8	0.2	0.2	0.2	1	0	0	0	1	229	834.462014958262	j	1	0	0
0	2	-0	0	0.8	0.2	0	0	0	0	1	230	387.663703411818	j	1	0	1
0	1	0.4	0.6	0.2	0.2	0	4	1	1	1	231	827.482108026743	j	1	0	0
1	1	0.4	0.4	0.4	-0	0	0	0	1	1	232	718.804858624935	k	2	0	1
0	2	0.4	0.2	-0	0.8	1	2	1	0	1	233	495.730996131897	j	1	0	1
1	1	0.2	0.6	0.4	0.4	1	1	1	0	1	234	599.708404392004	k	2	0	1
0	2	0.2	0.2	0.4	0.4	1	1	1	1	1	235	408.20225328207	j	1	0	1
1	1	0.4	0.8	0.2	0.4	1	1	1	1	1	236	555.746465921402	j	1	1	0
0	1	0.4	1	0.8	0.2	1	0	0	1	1	237	380.894497036934	k	2	1	1
1	2	1	0.4	0.2	0.2	1	2	1	1	1	238	775.757504627109	j	1	1	0
1	2	0.6	0.2	0.4	1	0	0	0	1	1	239	534.163786098361	k	2	1	1
1	1	0.2	0.4	1	0.8	0	2	1	0	1	240	479.53405790031	j	1	1	1
1	1	0.2	0.4	0.4	0.2	1	0	0	1	1	241	537.745334208012	j	1	1	1
1	1	1	0.8	0.4	0.4	1	0	0	0	1	242	459.707703441381	j	1	1	1
1	2	0.6	0.2	0.2	0.4	1	3	1	0	1	243	557.109948247671	j	1	1	1
0	2	0.8	0.4	0.2	0.8	1	0	0	1	1	244	527.546102181077	j	1	1	1
0	1	1	0.4	0.8	0.4	1	2	1	0	1	245	470.844395458698	j	1	1	1
1	1	0.6	0.6	0.4	0.4	0	0	0	1	1	246	531.158730387688	k	2	1	1
1	1	0.6	0.6	0.6	0.4	1	0	0	0	1	247	481.048736721277	k	2	1	1
0	2	1	0.2	0.4	0.2	1	3	1	0	1	248	723.473243415356	k	2	1	1
1	1	0.4	0.6	0.6	0.6	1	1	1	0	1	249	549.882523715496	j	1	1	1
0	1	0.6	1	0.6	0.2	1	0	0	1	1	250	502.76467949152	k	2	1	1
0	2	0.4	0.4	0.2	0.6	0	2	1	1	1	251	496.435476467013	k	2	1	1
1	1	0.6	0.6	1	0.6	0	1	1	0	1	252	730.549283325672	j	1	1	1
0	1	0.8	1	0.6	0.4	1	0	0	1	1	253	683.299995958805	j	1	1	1
1	1	0.4	0.2	1	0.6	0	0	0	0	1	254	553.372673690319	k	2	1	1
0	1	0.4	0.8	0.2	1	1	0	0	0	1	255	436.348667368293	j	1	0	0
1	2	0.4	0.8	0.4	1	1	4	1	1	1	256	580.627532675862	k	2	1	1
1	1	0.2	0.8	0.4	0.2	0	1	1	0	1	257	526.914443820715	j	1	0	1
0	1	0	0.2	0.2	0.8	1	0	0	1	1	258	513.405686244369	j	1	1	0
1	2	0.6	-0	0.8	0.4	0	2	1	1	1	259	582.209648564458	k	2	1	1
0	1	0	0.2	0.2	0.2	0	1	1	0	1	260	594.882417470217	k	2	0	0
1	2	0.2	0.6	-0	0.2	1	1	1	1	1	261	515.880322083831	j	1	0	0
1	1	0.2	-0	0	-0	0	1	1	1	1	262	462.502207607031	j	1	0	1
1	1	0	0.2	0.2	0.2	1	0	0	1	1	263	581.887809559703	j	1	0	1
1	2	0.8	0	0.2	0	0	2	1	1	1	264	610.003488138318	j	1	1	0
0	1	0.2	0	0	0.2	1	1	1	0	1	265	337.252121418715	k	2	1	0
0	1	0.4	0.6	0	0	0	0	0	1	1	266	417.756957933307	j	1	1	1
1	2	0.6	0.6	0	0	1	2	1	1	1	267	670.476160943508	j	1	1	1
1	1	0	0.6	0.6	0	0	1	1	0	1	268	414.785236120224	j	1	1	1
1	1	0.4	0.2	0.6	0.6	1	0	0	1	1	269	446.071166545153	j	1	1	1
0	2	0.4	0.2	0.6	0.6	0	2	1	1	1	270	721.496237441897	k	2	1	1
1	2	0.6	0.8	0.2	0.2	0	0	0	1	1	271	468.761013820767	k	2	1	1
0	2	0.2	0.8	0.8	0.2	1	0	0	0	1	272	387.658564373851	k	2	1	1
0	2	0.8	0.2	0.8	0.8	1	0	0	0	1	273	422.301255166531	k	2	1	1
1	1	0.6	-0	0.2	0.6	1	4	1	0	1	274	687.452670186758	k	2	1	1
1	1	1	0.6	-0	0.2	1	0	0	1	1	275	505.307259038091	k	2	1	1
1	1	0.6	0.2	0.6	-0	1	0	0	0	1	276	490.206819027662	j	1	1	1
0	1	0.4	0.6	0.2	0.6	1	0	0	0	1	277	459.545824676752	j	1	0	0
1	2	0.4	0.6	0.2	0.8	0	4	1	0	1	278	558.053219690919	j	1	1	1
1	1	0.4	0.4	0.4	0.2	0	1	1	0	1	279	525.29263868928	k	2	0	1
0	1	1	0.4	0.4	0.6	1	0	0	1	1	280	538.00442814827	k	2	0	1
0	2	0	0.8	0.6	0.4	0	2	1	1	1	281	545.880263671279	j	1	1	1
0	2	-0	0.6	0.8	1	1	0	0	1	1	282	514.753332361579	j	1	1	1
0	1	0.2	0.6	1	0.4	0	2	1	0	1	283	461.264237761497	j	1	0	1
1	2	0.8	1	0.6	0.8	1	1	1	0	1	284	486.872525885701	j	1	1	1
0	2	0.8	0.4	1	0.2	1	0	0	1	1	285	503.107998520136	k	2	1	1
1	2	0.6	0.8	0.4	1	1	0	0	0	1	286	792.941384017467	k	2	0	0
1	1	0.2	0.6	0.2	0.6	0	3	1	1	1	287	769.068842753768	k	2	1	0
0	2	0.4	0	0.6	0.4	1	1	1	0	1	288	523.639740422368	k	2	0	1
0	2	0	0.6	0.4	0.6	0	0	0	1	1	289	378.796620294452	k	2	0	1
1	2	0	0.4	0	0.4	1	0	0	0	1	290	518.375232815742	j	1	0	1
0	1	0.8	0.6	0.6	0.6	1	3	1	1	1	291	654.131395742297	j	1	1	1
0	1	0.4	0.8	0.6	0	0	0	0	1	1	292	442.048661410809	j	1	1	1
1	2	0	0	0	0	0	2	1	0	1	293	954.999662935734	k	2	0	1
1	1	1	0.4	0.8	0.6	0	1	1	0	1	294	610.182059928775	k	2	1	1
1	2	0	0.4	0	0.8	0	1	1	1	1	295	396.950028836727	k	2	1	0
1	1	0.8	0.4	0.4	0	1	1	1	1	1	296	406.208205968142	j	1	1	1
0	2	0.6	0.2	0.4	0.4	1	1	1	1	1	297	566.277697682381	k	2	1	1
1	1	0.2	0.6	0.4	0.4	1	1	1	1	1	298	833.869952708483	k	2	1	1
0	1	0.2	0.2	0.6	0.2	1	0	0	1	1	299	507.074432447553	k	2	1	1
1	1	0.2	0	0.2	0.6	0	0	0	0	1	300	460.824426263571	j	1	1	1
1	2	0.2	-0	0.2	0.4	0	3	1	1	1	301	604.359555989504	j	1	1	1
0	2	0.4	0.4	-0	0	0	0	0	1	1	302	542.416138574481	j	1	0	0
0	1	0.2	0	0	0.2	1	2	1	0	1	303	519.921662285924	k	2	0	0
0	2	0.2	0.4	0.4	-0	1	1	1	0	1	304	545.652916654944	j	1	0	1
1	1	0.4	0.4	0.2	0.4	0	1	1	1	1	305	441.261688247323	k	2	0	1
1	2	0.6	0	0.2	0.2	1	1	1	1	1	306	467.561716213822	j	1	0	1
1	1	0.4	0.4	0.4	0.2	1	1	1	1	1	307	387.439295649529	k	2	0	1
1	2	0.6	0.4	0.6	0.4	1	1	1	1	1	308	575.125074014068	k	2	1	0
0	2	0.6	0.4	0.4	0.4	0	0	0	1	1	309	566.877549514174	j	1	0	0
1	2	0.4	0.2	0.6	0.4	1	0	0	0	1	310	498.067105188966	j	1	0	1
0	1	0.2	0.2	0.4	0.6	1	3	1	1	1	311	523.372175171971	k	2	0	1
0	2	0.4	0.6	0.4	0.6	0	1	1	0	1	312	610.772365704179	k	2	0	1
0	1	0.2	0.4	0.2	0.4	0	1	1	1	1	313	349.49910454452	k	2	0	1
0	2	0.6	0.2	0.4	0.2	1	1	1	1	1	314	788.991006091237	k	2	0	NaN
1	2	0.8	0	0.6	0.2	1	0	0	1	1	315	NaN	NaN	NaN	NaN	0
0	2	0	0	NaN	0.6	0	0	0	0	1	316	400.951717048883	k	2	0	0
0	2	1	0.2	0	NaN	0	0	0	0	1	317	546.422036364675	k	2	1	0
1	1	0.2	0.6	0.2	0.4	0	4	1	1	1	318	978.845061734319	k	2	1	0
0	1	0.2	0.8	0.6	0.2	1	0	0	1	1	319	396.298978477716	k	2	1	1
0	1	0.4	0.6	0.8	0.6	0	0	0	0	1	320	591.004177927971	j	1	1	1
0	2	0.6	0.2	0.2	0	1	3	1	0	1	321	798.350820317864	k	2	1	1
1	2	0.2	0.4	0.2	0.6	0	0	0	1	1	322	535.94864718616	j	1	1	1
0	2	0	0.4	0.4	0.2	0	0	0	0	1	323	977.598655968904	j	1	1	1
0	2	0.2	0	0.4	0.4	1	0	0	0	1	324	658.876115456223	j	1	1	1
1	1	0.8	0	0.6	0.8	0	4	1	0	1	325	676.233345642686	k	2	1	1
1	1	0.6	0	0	0	1	0	0	1	1	326	708.961913362145	k	2	1	1
0	1	1	0.2	0	0	1	0	0	0	1	327	350.618934258819	j	1	0	0
0	2	-0	0.6	0	0.4	1	3	1	0	1	328	386.231971904635	k	2	0	0
0	2	1	0.4	-0	1	0	0	0	1	1	329	483.359917998314	j	1	0	1
1	2	0.6	0	1	-0	1	0	0	0	1	330	484.691699966788	j	1	0	1
1	1	0.4	0.8	1	0	0	3	1	0	1	331	796.310385689139	k	2	0	1
1	1	0.8	-0	0.4	0.6	1	0	0	1	1	332	623.394830152392	k	2	0	1
1	2	1	0.4	0.6	1	1	2	1	0	1	333	790.572987869382	j	1	0	1
1	1	0.6	0	0.8	0.4	1	1	1	0	1	334	537.518700584769	j	1	0	1
0	1	0.8	0	0.6	1	1	0	0	1	1	335	459.302032366395	j	1	0	1
1	2	0.2	0.8	1	0.8	1	2	1	1	1	336	949.053443968296	j	1	0	1
1	2	0.6	1	0.2	0.8	0	0	0	1	1	337	795.558515936136	j	1	0	1
1	1	0.8	0.4	0.8	0.6	0	2	1	0	1	338	605.541300028563	k	2	0	1
1	1	1	0.2	0.8	0.6	1	0	0	1	1	339	486.893150955439	j	1	0	1
0	1	0.6	0.6	1	0.8	1	0	0	0	1	340	544.757489115	j	1	0	1
0	2	0.4	0.6	0.6	0.2	1	3	1	0	1	341	483.322797343135	j	1	0	1
0	1	0.6	0.2	0.6	1	0	1	1	0	1	342	571.275610476732	j	1	0	1
0	1	1	0	0.6	0.4	0	0	0	1	1	343	436.81008182466	k	2	0	1
1	2	0.8	0.8	0.4	0.6	1	2	1	1	1	344	445.674547925591	j	1	0	1
0	2	0.2	0.6	0.8	1	0	0	0	1	1	345	480.466736480594	k	2	0	1
1	2	0.6	0.2	0.2	0.8	0	0	0	0	1	346	776.400441303849	j	1	0	1
1	1	0.4	0	1	0.6	0	3	1	0	1	347	785.108249634504	k	2	0	1
0	1	0.2	0	0.4	0.6	1	0	0	1	1	348	548.092737793922	j	1	0	1
1	1	0.2	0	0.2	0.4	0	0	0	0	1	349	469.43349018693	j	1	0	1
0	1	0	0.4	0.2	0.2	1	0	0	0	1	350	622.984826564789	j	1	1	0
0	1	0.2	0	0.4	0.2	0	0	0	0	1	351	352.861994877458	j	1	1	1
1	2	0.6	1	0.6	0.2	0	5	1	0	1	352	608.022125437856	j	1	1	0
1	2	0.6	0.4	1	0	1	0	0	1	1	353	394.728034734726	j	1	1	1
1	2	0.8	0.4	0.4	1	0	0	0	0	1	354	658.73571112752	k	2	1	NaN
0	2	1	0.6	0.4	0.4	1	0	0	0	1	355	NaN	NaN	NaN	NaN	0
1	1	0.8	0.4	0	0.4	0	4	1	0	1	356	478.559210896492	j	1	0	0
1	2	0.8	0.6	NaN	0.4	0	1	1	0	1	357	567.638484761119	k	2	1	0
0	1	0.2	0	0.8	NaN	1	1	1	1	1	358	905.652228742838	j	1	1	0
1	2	0.8	0.4	0.6	0.8	0	1	1	1	1	359	472.882794216275	j	1	1	1
0	2	0.6	0.6	0.4	0	1	0	0	1	1	360	996.60143814981	k	2	1	1
1	1	0.8	0.6	NaN	NaN	NaN	NaN	NaN	NaN	2	1	827.562711958308	k	2	0	NaN
1	1	0.6	0.2	0.8	NaN	1	0	0	NaN	2	2	644.641041988507	k	2	0	1
0	1	0.6	0	0.6	0.8	1	0	0	0	2	3	742.279888014309	j	1	0	1
0	1	0.6	1	0.6	0.6	0	0	0	0	2	4	550.630304031074	j	1	0	1
1	2	0.2	0.4	NaN	NaN	NaN	4	1	NaN	2	5	NaN	NaN	NaN	NaN	NaN
0	2	1	0	NaN	0.6	1	0	0	1	2	6	675.180103979073	k	2	0	0
1	1	-0	0.6	0.6	0.6	0	2	1	0	2	7	994.295282987878	k	2	0	NaN
1	1	0.2	0.6	-0	1	1	0	0	1	2	8	NaN	NaN	NaN	NaN	0
0	1	0.6	0.6	NaN	-0	1	0	0	0	2	9	598.54403801728	j	1	1	0
1	1	0.8	0.6	0.6	NaN	0	0	0	0	2	10	526.828388974536	j	1	1	1
1	2	0.8	-0	1	NaN	1	4	1	0	2	11	943.917625991162	j	1	0	1
1	2	0.6	0.4	0.8	0.6	0	0	0	1	2	12	466.663694998715	j	1	0	1
1	1	0	0.4	0.6	0.6	1	2	1	0	2	13	570.39964501746	j	1	1	1
0	2	0.2	0.8	0.6	0.8	0	1	1	0	2	14	500.285201997031	k	2	0	1
0	1	0	0.6	0.4	0.6	1	1	1	1	2	15	694.772535003722	j	1	0	0
0	1	0.4	0.2	0	0.2	0	0	0	1	2	16	856.456886976957	k	2	1	0
1	2	0	0.4	0.2	0.4	1	2	1	1	2	17	624.180587008595	k	2	0	1
1	1	0	0.6	0.2	0	0	1	1	0	2	18	696.951135003474	k	2	1	1
0	2	0.6	1	0	0.2	1	1	1	1	2	19	643.835999944713	k	2	1	0
0	1	0.4	0.4	0.6	0	1	1	1	1	2	20	820.895012991969	k	2	0	0
1	2	0.6	0.4	1	0.6	0	1	1	1	2	21	560.078453971073	k	2	1	1
0	2	0.4	0.6	0.4	0.4	1	0	0	1	2	22	534.226027957629	j	1	1	1
0	2	0.6	0.4	0.6	0.4	1	0	0	0	2	23	474.136037984863	k	2	1	1
0	2	0.8	0.2	0.4	0.6	0	0	0	0	2	24	457.941326021682	j	1	1	1
1	1	0.4	0.6	0.4	1	0	4	1	1	2	25	548.056378029287	k	2	1	0
0	2	0.8	0.8	0.2	0.4	0	1	1	0	2	26	549.298460013233	k	2	1	1
0	1	0.2	0.8	0.6	0.2	1	1	1	1	2	27	462.415130983572	k	2	1	1
0	2	0.6	0.4	0.8	0.6	1	1	1	1	2	28	808.062442985829	k	2	1	1
1	1	-0	0.6	0.8	0.8	0	1	1	1	2	29	522.219008009415	k	2	1	1
1	2	0	0.4	0.4	0.8	0	1	1	1	2	30	402.210108994041	k	2	1	1
1	2	0.2	0.6	0.4	0.6	1	0	0	1	2	31	451.01182104554	j	1	0	0
0	2	1	0.4	0.2	0.4	0	0	0	0	2	32	492.145535012241	j	1	0	1
0	1	0.2	1	0.6	0.4	1	3	1	1	2	33	799.622478021774	j	1	0	0
0	1	0.4	0.4	0.2	1	0	0	0	1	2	34	617.073420027737	k	2	0	1
1	1	0.2	0.8	0.4	0.2	0	0	0	0	2	35	519.992635003291	j	1	0	1
0	2	0.2	0.2	1	0.2	1	3	1	0	2	36	522.957505017985	k	2	0	1
0	1	0.6	0.6	0.2	0.4	1	1	1	0	2	37	723.88178302208	k	2	1	0
1	1	0.4	0.6	0.6	0.2	0	0	0	1	2	38	596.466115966905	j	1	1	1
1	1	0.2	0.4	0.6	0.6	1	0	0	0	2	39	519.895801960956	j	1	1	1
0	2	0.6	0.2	0.2	0.2	0	3	1	1	2	40	736.479273997247	j	1	1	0
1	2	0.6	0.8	0.2	0.4	0	0	0	1	2	41	545.846534019802	j	1	0	0
0	2	-0	0.6	0.6	0.2	1	0	0	0	2	42	690.97936101025	k	2	0	1
1	2	0	0	-0	0.6	0	0	0	0	2	43	556.657093984541	k	2	0	1
0	2	0.4	0.4	0	-0	1	0	0	0	2	44	718.646807014011	k	2	1	0
1	1	0.6	0.6	0.4	0.6	1	5	1	0	2	45	616.070957970805	j	1	1	1
1	2	0.2	0.4	0.4	0	1	1	1	0	2	46	615.593242982868	j	1	0	0
0	2	-0	0.6	0.2	0.6	1	0	0	1	2	47	706.376023008488	k	2	1	0
0	1	0.2	-0	0.6	0.4	1	2	1	1	2	48	515.399965981487	k	2	0	0
1	2	0.8	0.6	0.6	0.2	0	1	1	0	2	49	731.04785796022	k	2	0	0
1	2	0	0.6	0.8	0.2	1	0	0	1	2	50	468.792858999223	k	2	0	1
0	2	0.2	0	0	0.8	0	0	0	0	2	51	422.709234000649	j	1	1	0
1	1	0.4	0.4	0.2	0.6	0	3	1	1	2	52	672.559508006088	k	2	0	1
0	1	0.6	0.2	0.4	0	1	0	0	1	2	53	832.579571986571	j	1	1	0
0	2	-0	0.2	0	0	1	2	1	0	2	54	497.781079960987	k	2	0	NaN
1	1	0.6	0	0.2	0.4	0	1	1	0	2	55	595.631923002657	j	1	1	1
1	2	-0	0.4	-0	0.2	1	1	1	1	2	56	NaN	NaN	NaN	NaN	0
1	1	0.6	0	0	-0	1	1	1	1	2	57	525.0882509863	k	2	0	0
0	1	1	0.4	0.6	NaN	1	0	0	1	2	58	671.861534006894	j	1	0	1
1	1	0.4	0.6	1	0.6	0	0	0	0	2	59	489.338147977833	j	1	0	1
1	1	0.8	0.8	0.4	1	1	0	0	0	2	60	546.891577017959	k	2	0	1
0	1	1	0	0.8	0.4	1	0	0	0	2	61	611.857859999873	k	2	0	1
1	2	0.2	0.2	NaN	0	0	5	1	1	2	62	709.675039979629	k	2	1	0
0	2	0.4	-0	0.2	1	1	0	0	1	2	63	679.815731011331	j	1	1	1
0	2	0.8	0.6	-0	0.2	1	0	0	0	2	64	681.191159004811	j	1	0	0
0	1	0.6	-0	1	0.8	0	3	1	0	2	65	474.747474014293	k	2	0	1
1	1	0.6	0.4	0.6	0.8	0	0	0	1	2	66	642.779030022211	j	1	0	1
0	2	0.2	-0	0.8	-0	0	2	1	0	2	67	669.083426997531	k	2	0	1
0	2	0.6	0.4	0.2	0.6	0	0	0	1	2	68	411.79944598116	j	1	0	1
0	1	0.8	0	0.6	0.6	1	2	1	0	2	69	479.276900994591	k	2	0	1
1	1	0.6	0.2	0.8	0.6	0	0	0	1	2	70	735.398361983243	j	1	0	1
0	1	0.6	1	0.6	0.8	1	0	0	0	2	71	448.776394012384	k	2	0	1
0	2	0.6	0.2	0.6	0.2	1	3	1	0	2	72	665.544447023422	k	2	0	1
0	2	0.8	0.4	0.6	0.6	0	0	0	1	2	73	483.169536979403	j	1	0	1
1	2	0.6	0.4	0.8	0.6	1	0	0	0	2	74	398.057172016706	j	1	0	1
1	1	0.8	0.8	0.6	0.6	0	3	1	0	2	75	503.655321022961	k	2	0	1
1	1	0.4	0	0.8	0.6	1	0	0	1	2	76	392.535214021336	k	2	0	1
0	2	0.6	1	0.6	0.8	0	2	1	0	2	77	427.627581986599	j	1	0	1
0	2	0.8	0	0.6	0.4	1	0	0	1	2	78	483.423054043669	k	2	0	1
0	1	0.2	0.4	0.4	0.8	1	2	1	0	2	79	525.827502016909	k	2	1	0
0	1	-0	0.2	0.4	0.8	0	0	0	1	2	80	471.278193988837	j	1	0	0
1	1	0.4	0.6	-0	0.4	0	0	0	0	2	81	488.15997102065	k	2	1	0
0	2	0.4	0.4	0.8	0.6	1	3	1	0	2	82	775.306635012385	k	2	0	1
1	1	0.2	0.8	0.6	-0	1	1	1	0	2	83	474.382273037918	k	2	1	1
1	2	0.8	1	0.4	0.6	0	1	1	1	2	84	505.986197036691	j	1	1	0
1	1	0	0.4	0.8	0.4	1	1	1	1	2	85	484.305722988211	k	2	1	1
1	2	1	0	1	0.8	0	1	1	1	2	86	638.917644973844	j	1	1	1
0	1	0	0.8	0.4	1	1	1	1	1	2	87	416.490924020763	j	1	0	0
0	1	0.6	0.8	0	0	0	0	0	1	2	88	616.574632003903	k	2	0	1
0	2	1	0.4	0	0.4	1	2	1	1	2	89	577.249024994671	j	1	1	1
1	1	0.8	0.6	0.6	0	0	1	1	0	2	90	770.644219010137	j	1	0	1
0	2	0.2	0.4	0.4	0.6	1	1	1	1	2	91	646.146241982933	j	1	0	0
1	1	0.6	0.2	0.8	0.4	1	1	1	1	2	92	576.061440980993	j	1	1	0
1	2	0.8	0.4	0.2	0.8	1	1	1	1	2	93	616.313039965462	j	1	1	0
1	1	0.4	0.4	0.2	0.2	1	1	1	1	2	94	435.100736969616	k	2	0	0
0	1	0.2	-0	0.4	0.4	1	0	0	1	2	95	971.393199986778	j	1	0	1
1	2	0.4	0.4	0.4	0.2	0	2	1	1	2	96	997.19309899956	k	2	1	1
1	1	0.2	0.6	0.2	0.4	0	1	1	0	2	97	702.365768025629	j	1	1	0
0	2	0.4	0	0.4	0.2	0	1	1	1	2	98	696.997141989414	k	2	1	1
1	1	0	0.6	0.6	0.4	1	1	1	1	2	99	832.96051400248	k	2	1	1
0	2	0.6	0.8	0	0.6	1	1	1	1	2	100	450.876097020227	j	1	0	0
1	1	0.8	0	0.6	0	1	1	1	1	2	101	564.725712989457	j	1	1	1
0	1	0.4	0	0	0.6	1	0	0	1	2	102	575.880591000896	j	1	0	0
0	1	0.2	0.2	0.4	0	0	0	0	0	2	103	768.457681988366	j	1	0	1
0	1	1	0.2	0.2	0.4	0	0	0	0	2	104	353.032347979024	j	1	0	1
0	1	0.8	0.2	1	0.2	0	0	0	0	2	105	602.53745195223	k	2	0	1
1	2	0.6	0.4	0.6	0.6	1	5	1	1	2	106	362.309877004009	j	1	0	1
1	1	0.6	0.2	0.8	1	0	1	1	0	2	107	485.586208000313	j	1	0	1
0	2	0.6	1	0.6	0.8	1	1	1	1	2	108	485.322339984123	j	1	0	1
1	2	0.4	1	0.6	0.6	0	0	0	1	2	109	551.617369987071	k	2	0	1
1	2	1	1	0.4	0.6	1	0	0	0	2	110	511.60190498922	k	2	0	1
1	2	0.2	1	1	0.4	1	0	0	0	2	111	506.686042004731	k	2	0	1
1	1	0.4	0	0.6	0.6	1	4	1	1	2	112	786.280822008848	j	1	0	1
0	2	0.4	0.8	0.2	1	1	1	1	0	2	113	451.457507966552	k	2	0	1
1	1	0.2	0.8	0.4	0.2	1	1	1	1	2	114	383.298749977257	j	1	0	1
1	1	1	0.4	0.2	0.4	1	0	0	1	2	115	384.525158035103	j	1	0	1
1	1	0.4	0.2	1	0.2	1	0	0	0	2	116	520.01979801571	k	2	0	1
1	1	0.8	0	0.4	1	1	0	0	0	2	117	402.640128973871	k	2	0	1
0	2	0.6	0.8	0.4	0.4	0	4	1	1	2	118	412.984752038028	j	1	0	1
1	1	0.6	0.8	0.8	0.4	1	1	1	0	2	119	532.862976018805	j	1	0	1
0	1	0.4	0.4	0.6	0.6	1	0	0	1	2	120	437.464379996527	j	1	0	1
0	2	0	0.4	0.6	0.8	0	2	1	1	2	121	943.4224999859	j	1	1	0
0	2	0.2	1	0.4	0.4	0	0	0	1	2	122	472.186364000663	j	1	0	0
0	2	0.2	0.4	0.2	0.4	0	0	0	0	2	123	569.327089004219	j	1	1	0
0	2	0.4	0.6	0.4	0.2	1	0	0	0	2	124	601.647261995822	k	2	0	0
1	1	0.6	0.6	0.4	0.6	0	4	1	0	2	125	708.167303004302	k	2	0	1
1	2	0	0.8	0.4	0.4	1	1	1	0	2	126	750.225167023018	j	1	1	0
1	2	-0	0	0.8	0.6	1	0	0	1	2	127	455.749646003824	j	1	1	1
1	1	0.2	0.6	0.6	0.4	1	2	1	1	2	128	626.256323012058	k	2	0	1
0	2	0	0.4	0	0.8	1	1	1	0	2	129	640.730846964289	j	1	1	1
0	2	-0	0	0.4	0.2	1	0	0	1	2	130	460.009705973789	j	1	0	0
0	1	0	0.4	0.2	0	1	2	1	1	2	131	714.976623014081	j	1	0	1
1	2	0.2	0.4	-0	0.4	1	1	1	0	2	132	655.839461018331	k	2	1	0
1	1	0.6	0.4	0	-0	0	1	1	1	2	133	783.346800017171	k	2	1	0
0	1	0	0.4	0.4	0.4	1	0	0	1	2	134	544.57252996508	k	2	1	1
0	2	0.2	0.6	0.4	0	1	2	1	1	2	135	736.378344998229	k	2	1	1
0	1	0.4	1	0.4	0.4	0	1	1	0	2	136	610.620777006261	j	1	1	1
0	2	-0	0.4	0.6	0.4	0	1	1	1	2	137	661.617219971959	j	1	1	1
0	1	0.4	0.4	1	0.6	0	1	1	1	2	138	655.357745999936	k	2	1	1
0	2	0.8	0.2	0.4	1	1	1	1	1	2	139	383.321125002112	j	1	1	1
1	2	-0	0.8	0.2	0.4	1	0	0	1	2	140	489.356215985026	k	2	1	1
1	2	0.4	0	0.8	0.2	0	0	0	0	2	141	841.17634803988	k	2	1	1
1	2	0.6	0.6	0	0.8	1	0	0	0	2	142	482.863260025624	j	1	1	1
1	2	0.2	0.4	0.6	0	0	0	0	0	2	143	531.461074016988	j	1	1	1
0	1	0.4	0.2	0.4	0.4	0	5	1	1	2	144	615.952659980394	j	1	0	0
1	1	1	0.4	0.4	0.4	0	0	0	1	2	145	726.408754999284	k	2	0	1
0	2	0.4	0	0.4	0.6	0	2	1	0	2	146	426.562171953265	j	1	1	1
1	2	0	0.4	0	1	0	0	0	1	2	147	505.918581038713	j	1	0	0
0	2	0.2	0.8	0	0	0	0	0	0	2	148	675.507962005213	k	2	1	0
0	2	0.2	1	0.8	0	1	0	0	0	2	149	589.126104023308	j	1	1	1
0	2	0.6	0	1	0.8	1	0	0	0	2	150	358.180842013098	j	1	1	1
1	1	0	0.6	1	0.4	1	5	1	0	2	151	607.921967981383	j	1	1	0
1	2	0	0.4	0	1	1	1	1	0	2	152	873.402820026968	k	2	1	1
0	2	0.4	0.2	0.4	0.6	1	0	0	1	2	153	475.339227006771	j	1	1	1
1	1	0.4	0.6	0.6	0	1	2	1	1	2	154	538.003319001291	j	1	1	1
1	1	0.4	0.6	0.6	0.2	1	0	0	1	2	155	373.101432982367	j	1	1	1
1	2	0.4	0.4	0.2	0.4	0	2	1	0	2	156	847.74793300312	j	1	1	1
0	1	-0	0.6	0.6	0.6	1	1	1	0	2	157	521.407482970972	j	1	1	1
1	2	0.4	0.6	0.4	0.6	1	1	1	1	2	158	583.863411971834	j	1	1	1
1	1	0.8	0.4	0.6	0.4	0	1	1	1	2	159	507.917317969259	j	1	1	1
0	1	0.4	0.2	0.4	0.6	1	0	0	1	2	160	509.046245948412	j	1	1	1
0	2	0	0.6	0.6	0.6	0	2	1	1	2	161	843.386463006027	k	2	1	1
1	1	0.6	0	0.2	0.4	0	1	1	0	2	162	541.462101973593	k	2	1	1
1	2	-0	0.4	0.6	0.2	1	1	1	1	2	163	687.286035972647	j	1	1	1
0	2	0.6	0.8	0.4	0	1	0	0	1	2	164	682.754039007705	k	2	1	1
1	1	0.4	0	0	0.6	1	2	1	1	2	165	972.206172009464	k	2	0	0
1	1	0.6	0	0.4	0.8	1	0	0	1	2	166	498.037283017766	k	2	0	1
0	1	0.4	0.6	0.6	0.4	1	0	0	0	2	167	501.89799797954	k	2	0	1
0	1	0.6	0.6	0.4	0.6	0	0	0	0	2	168	437.395192042459	j	1	0	1
1	2	0.6	0.2	0.8	0.4	1	4	1	0	2	169	928.925366955809	k	2	1	1
0	1	0.6	0.2	0.6	0.4	0	1	1	0	2	170	689.898159005679	j	1	0	1
1	1	0	0.2	0.6	0.2	0	0	0	1	2	171	498.846157046501	j	1	0	1
1	1	0	0.6	0	0.6	1	0	0	0	2	172	746.899985009804	k	2	0	1
1	1	0	0.2	0	0	1	0	0	0	2	173	342.161154025234	j	1	1	0
1	1	0.6	0.4	0.2	0	1	0	0	0	2	174	373.874042998068	j	1	1	1
1	2	0.6	0.4	0.2	0.6	0	5	1	1	2	175	854.938138974831	k	2	0	0
1	1	0.6	0.6	0.4	0.2	1	1	1	0	2	176	808.878535986878	k	2	0	0
1	2	0.4	0.2	0.6	0.4	0	1	1	1	2	177	921.466409985442	j	1	0	1
0	1	0.8	1	0.6	0.6	1	1	1	1	2	178	732.534329988994	j	1	0	1
0	2	1	0.2	0.4	0.6	0	1	1	1	2	179	502.538312051911	j	1	0	1
1	2	0.6	0.6	1	0.8	1	0	0	1	2	180	493.578379973769	k	2	0	1
0	1	0.4	0.4	0.8	0.4	0	2	1	1	2	181	422.210535034537	j	1	1	0
0	1	0	0.4	0.4	0.6	0	0	0	1	2	182	503.291420987807	k	2	1	1
1	1	0.6	1	0.4	0.4	0	0	0	0	2	183	465.747823996935	j	1	1	1
1	2	0.8	0.6	0.6	1	1	3	1	0	2	184	832.879121007863	j	1	1	0
0	2	1	0.4	0.6	1	1	0	0	1	2	185	499.268829007633	k	2	1	1
0	1	0.8	0.8	1	0.4	1	2	1	0	2	186	724.998876976315	k	2	1	1
1	1	-0	0.4	0.8	0.4	0	0	0	1	2	187	494.118597009219	j	1	1	1
0	2	1	0.6	0.4	0.6	1	2	1	0	2	188	549.992985033896	k	2	1	1
0	2	0.6	-0	0.6	0.4	1	0	0	1	2	189	489.275589992758	k	2	1	1
1	1	0.6	0.8	0.4	0.8	1	2	1	0	2	190	480.511756963097	k	2	1	1
1	2	0.4	0	-0	0.6	0	1	1	0	2	191	419.628850999288	j	1	1	1
1	2	0.4	0	0	0.8	0	0	0	1	2	192	518.04065995384	k	2	0	0
0	1	0.6	0.4	0.8	-0	1	2	1	1	2	193	661.478776950389	j	1	1	1
1	2	1	0.4	0.4	0	0	1	1	0	2	194	399.25628900528	k	2	0	1
0	1	0.2	1	0.4	0.4	0	1	1	1	2	195	802.456100005656	k	2	1	1
0	2	1	0.4	1	0.4	1	1	1	1	2	196	721.606178965885	k	2	0	1
0	1	0.6	0.4	1	1	0	1	1	1	2	197	641.515422961675	k	2	1	1
1	1	0.8	0.6	0.4	1	0	0	0	1	2	198	499.992541968822	j	1	1	1
0	1	0.8	0.2	0.6	0.4	1	0	0	0	2	199	469.632385997102	k	2	1	1
1	1	1	0.6	0.2	0.6	0	0	0	0	2	200	349.886609008536	j	1	1	1
1	2	-0	0.6	1	1	0	4	1	1	2	201	729.754744970705	k	2	1	0
0	2	0.8	0.6	0.6	0.6	1	0	0	1	2	202	386.75595499808	k	2	1	1
0	2	0.6	1	0.6	0.6	1	0	0	0	2	203	403.570430004038	k	2	1	1
0	1	0.4	0	0.6	0.2	1	3	1	0	2	204	669.082138978411	j	1	1	1
1	1	1	0.4	0	1	0	0	0	1	2	205	487.488897982985	k	2	0	0
1	1	0.4	0.4	1	0	1	0	0	0	2	206	368.36551403394	j	1	0	1
1	2	0	0.6	1	0.6	0	3	1	0	2	207	599.843198957387	k	2	1	1
0	1	0	0.2	0.4	1	1	1	1	0	2	208	755.448563955724	k	2	0	1
0	2	0	0.6	0.6	0.4	0	1	1	1	2	209	929.518354008906	j	1	1	1
0	2	0.2	-0	0.6	0	0	0	0	1	2	210	902.027803007513	k	2	1	1
0	1	1	0.4	0	0.6	0	2	1	1	2	211	572.848496027291	k	2	1	0
1	1	1	0.2	0.4	-0	0	0	0	1	2	212	593.282585032284	k	2	1	1
1	1	-0	0.4	0.2	0.4	1	0	0	0	2	213	496.149163984228	j	1	1	1
0	2	0.2	-0	-0	0.6	1	3	1	0	2	214	705.301231995691	k	2	0	0
1	2	0	0	0.2	0.4	0	0	0	1	2	215	516.034072032198	j	1	0	1
1	1	0.2	0.8	0.4	0.2	1	2	1	0	2	216	443.694113986567	j	1	1	1
1	2	0.2	0.4	0	0.2	1	1	1	0	2	217	879.280214023311	k	2	1	0
0	2	0.4	0.4	0.4	0.8	0	0	0	1	2	218	638.008998997975	k	2	1	1
0	1	0.4	0.6	0.8	0	1	2	1	1	2	219	591.68618300464	k	2	1	1
1	1	0.4	0.6	0.6	0.4	0	0	0	1	2	220	531.716457975563	j	1	1	1
0	2	0.8	0	0.4	0.4	1	2	1	0	2	221	763.309739006218	k	2	1	1
1	2	0.6	0.2	0	0.6	1	0	0	1	2	222	366.325971030165	j	1	0	NaN
0	1	0	0.6	0.6	0.6	1	2	1	0	2	223	757.335172966123	j	1	1	1
0	1	0	0.6	0.6	0.6	0	0	0	1	2	224	920.600068988279	k	2	1	1
0	2	0.6	0	0.6	0	0	2	1	0	2	225	NaN	NaN	NaN	NaN	0
1	1	0.2	1	0.6	0.6	0	1	1	0	2	226	441.303843981586	k	2	1	1
1	2	0.8	0	NaN	0.6	0	1	1	1	2	227	837.2085490264	k	2	1	NaN
1	1	0	0.6	1	NaN	1	1	1	1	2	228	436.454662994947	j	1	1	1
1	2	0.4	0	0	1	1	1	1	1	2	229	NaN	NaN	NaN	NaN	0
0	2	0.6	0.6	NaN	0.6	1	0	0	1	2	230	375.001452979632	j	1	0	0
1	1	0	0.8	0.6	0	1	2	1	1	2	231	546.458508993965	j	1	1	1
0	2	0.2	0.4	0.6	NaN	1	1	1	0	2	232	441.800753003918	j	1	0	1
0	1	0	0.4	0.8	0.6	1	1	1	1	2	233	362.506974022835	j	1	1	1
0	1	0.2	0.4	0.4	0.2	0	0	0	1	2	234	350.474732986186	j	1	1	1
1	2	0.2	0.2	0.2	0.8	0	2	1	1	2	235	423.013873980381	j	1	1	0
1	2	0	0.4	0.2	0.4	1	0	0	1	2	236	367.904259008355	j	1	1	NaN
0	1	0.2	0.2	0.4	0.4	0	2	1	0	2	237	424.330495996401	j	1	1	1
0	1	0.6	0.8	0.2	0.4	0	0	0	1	2	238	601.340527005959	j	1	0	0
1	2	0	0.6	0.4	0.2	0	2	1	0	2	239	NaN	NaN	NaN	NaN	0
0	2	0.4	0.6	NaN	0.6	0	0	0	1	2	240	270.730176998768	j	1	1	0
1	1	0	0.4	0.6	0.2	0	2	1	0	2	241	317.866979981773	k	2	1	0
0	2	0.4	0.4	0.6	NaN	1	1	1	0	2	242	263.384248944931	j	1	0	0
0	2	0.2	0.8	0.4	0.4	1	0	0	1	2	243	448.605344980024	k	2	0	1
1	2	0.4	0.4	0.2	0.4	1	0	0	0	2	244	650.084248976782	j	1	1	0
1	2	0.8	0.6	0.4	0.2	0	0	0	0	2	245	428.374802984763	j	1	0	0
1	1	0.2	1	0.4	0.6	1	4	1	1	2	246	758.630772994366	j	1	0	0
1	2	1	0.8	0.8	0.4	0	1	1	0	2	247	870.140957995318	k	2	0	1
0	2	0.8	0.2	1	0.2	0	0	0	1	2	248	390.645406034309	k	2	0	1
0	1	0	-0	0.2	0.8	1	2	1	1	2	249	769.525566953234	j	1	1	0
0	1	0	0	-0	0.8	0	0	0	1	2	250	147.153171012178	k	2	0	0
0	2	1	0.8	0.8	1	0	2	1	0	2	251	388.765765994322	k	2	0	1
0	1	0.2	0.2	0	-0	0	1	1	0	2	252	764.148118963931	j	1	1	0
0	1	0.4	0.4	0.2	1	0	0	0	1	2	253	605.491585971322	j	1	1	1
1	1	1	0.4	0.4	0.2	0	0	0	0	2	254	320.195668959059	j	1	1	1
0	1	0.8	0.4	0.4	0.4	1	0	0	0	2	255	312.527687987313	j	1	1	1
1	2	0.8	0.8	1	0	1	4	1	1	2	256	530.600633006543	k	2	0	1
1	2	1	0.4	0.8	0.4	1	0	0	1	2	257	331.617327989079	j	1	0	1
0	1	0.6	0.2	0.4	0.4	0	2	1	0	2	258	556.607185979374	j	1	1	1
0	1	1	0.6	0.2	1	0	0	0	1	2	259	445.718859962653	j	1	1	1
0	2	0.6	0.8	1	0.8	0	2	1	0	2	260	327.720352972392	k	2	0	1
0	1	0.6	0	0.6	0.2	0	1	1	0	2	261	520.734285993967	j	1	1	1
0	2	1	0.8	0.6	0.6	0	1	1	1	2	262	505.888538027648	k	2	0	1
1	2	0.6	0	1	0	0	0	0	1	2	263	333.167563017923	k	2	0	1
0	1	0.6	0.4	0	0.6	0	2	1	1	2	264	493.467250023969	j	1	1	1
1	2	0.6	0.8	0.6	1	0	1	1	0	2	265	485.901320003904	k	2	0	1
0	2	0.6	0.6	0.6	0.4	1	0	0	1	2	266	350.61720298836	k	2	0	1
1	1	0.4	0	0.4	0.6	0	2	1	1	2	267	536.637805984356	k	2	1	1
1	2	0.8	0	0.6	0.6	0	1	1	0	2	268	506.69031200232	j	1	0	1
0	2	0.2	0.2	0.8	0	0	0	0	1	2	269	484.330740000587	j	1	0	1
0	2	0.2	0.6	0.2	0.8	0	0	0	0	2	270	381.493299966678	j	1	0	1
0	1	0.6	0	0	0.6	1	3	1	1	2	271	811.990595015232	k	2	0	0
1	1	0.6	-0	0.6	0.2	0	0	0	1	2	272	366.663410968613	j	1	0	1
0	2	0.8	0	0.2	0.2	0	2	1	0	2	273	717.761140025686	k	2	0	1
0	1	0.6	-0	0.6	0.6	1	1	1	0	2	274	456.334314018022	j	1	0	1
0	2	0.8	0.4	0.8	0.6	0	1	1	1	2	275	639.903949049767	j	1	0	1
1	2	0.4	0.2	0.8	0.6	1	0	0	1	2	276	387.723341002129	j	1	0	1
1	1	0	0.2	0.6	0.8	0	2	1	1	2	277	596.251398965251	k	2	0	1
0	2	0.2	0.2	0.4	0.8	0	1	1	0	2	278	526.73116204096	k	2	1	0
0	2	0	-0	0.2	0	1	0	0	1	2	279	517.700412019622	j	1	1	1
1	1	0.8	0.4	0	0.4	1	2	1	1	2	280	545.125151984394	j	1	1	0
0	1	0.6	0.8	0.4	-0	1	0	0	1	2	281	583.876075048465	j	1	1	1
1	2	0.8	0.2	-0	0.2	0	2	1	0	2	282	522.902314958628	j	1	0	0
1	2	0	0.2	0.8	0.8	1	0	0	1	2	283	531.391875003465	j	1	1	0
0	2	0.4	0.6	0.2	0.8	1	0	0	0	2	284	412.680125038605	k	2	1	1
1	2	0.2	0.2	0.6	0.2	0	0	0	0	2	285	589.153245033231	j	1	1	1
0	1	0.6	0.8	0.8	0.4	0	4	1	0	2	286	695.153692970052	k	2	1	1
1	1	0.6	0.4	0.8	0.2	0	0	0	1	2	287	487.583326001186	k	2	1	1
0	1	0.4	0.6	0.4	0.8	1	0	0	0	2	288	401.682698982768	k	2	1	1
1	2	1	0.6	0.2	0.6	0	3	1	0	2	289	673.963308974635	k	2	0	0
0	1	0.4	0.6	0.6	0.4	0	1	1	0	2	290	607.401373039465	k	2	1	1
1	2	-0	0.6	1	0.6	1	1	1	1	2	291	991.785679012537	k	2	0	1
1	1	0.4	0.6	0.6	1	0	1	1	1	2	292	473.533672047779	k	2	1	1
1	2	0.8	1	-0	0.6	0	1	1	1	2	293	512.119163002353	j	1	0	1
0	1	1	0.2	0.6	-0	1	1	1	1	2	294	571.978633000981	j	1	1	1
0	2	0.4	0.8	0.8	0.6	0	1	1	1	2	295	556.288311025128	j	1	0	1
1	1	0.4	0.4	0.2	0.8	0	1	1	1	2	296	591.136506991461	j	1	1	1
1	2	0.4	0.2	0.4	0.2	1	1	1	1	2	297	846.959659014829	k	2	0	1
1	1	0.6	0.6	0.4	0.4	1	1	1	1	2	298	438.977543031797	j	1	1	1
1	2	0.2	0.8	0.4	0.4	0	1	1	1	2	299	600.29495600611	j	1	1	0
1	2	0.8	0.8	0.8	0.6	1	0	0	1	2	300	490.888701984659	j	1	1	1
0	1	0.6	0.4	0.6	0.4	1	2	1	1	2	301	556.300531025045	k	2	0	0
1	2	0.4	0.4	0.8	0.8	1	1	1	0	2	302	412.786194996443	j	1	0	0
1	1	1	0.6	0.6	0.8	0	1	1	1	2	303	632.997326028999	j	1	1	0
0	1	0.4	0.6	0.6	0.4	1	0	0	1	2	304	417.218433052767	j	1	0	0
1	2	1	1	0.4	0.6	0	2	1	1	2	305	440.970741969068	j	1	0	1
0	1	1	0.6	0.4	0.6	0	1	1	0	2	306	516.012690030038	j	1	0	1
1	2	0.4	1	1	0.4	1	1	1	1	2	307	526.754631020594	k	2	0	1
1	1	0.6	0.6	1	1	0	1	1	1	2	308	453.986468026415	j	1	0	NaN
0	2	0	0.6	0.4	1	0	1	1	1	2	309	509.278769022785	k	2	0	1
0	1	0.6	0.2	0.6	0.4	1	1	1	1	2	310	NaN	NaN	NaN	NaN	0
1	2	0.2	0.8	0	0.6	0	1	1	1	2	311	738.82347997278	k	2	0	1
1	2	0.4	0	0.2	NaN	1	0	0	1	2	312	425.581810006406	j	1	1	0
0	2	0.2	0.8	0	0.2	0	0	0	0	2	313	644.844769965857	j	1	0	0
1	1	0.8	0.6	NaN	0	0	3	1	1	2	314	621.146051038522	k	2	0	0
1	1	0.8	0	0.8	0.2	1	0	0	1	2	315	454.875677998643	k	2	0	1
1	1	0.8	0.4	0.8	0.8	1	0	0	0	2	316	519.702509045601	j	1	0	1
1	1	0.8	0.8	0.8	0.8	1	0	0	0	2	317	440.380465995986	k	2	0	1
1	2	0.6	0.6	0.2	0	1	4	1	0	2	318	522.052693006117	k	2	0	1
0	1	0.6	0.8	0.8	0.8	1	1	1	0	2	319	461.83555299649	k	2	0	1
0	1	0	0.4	0.6	0.6	0	0	0	1	2	320	429.1768129915	j	1	0	1
1	1	0.4	0.8	0	0.6	0	0	0	0	2	321	758.139354002196	j	1	1	NaN
1	2	0.6	0.2	0.6	0.8	1	3	1	1	2	322	553.245469985995	j	1	0	1
0	1	0.4	0.6	0.8	0	1	1	1	0	2	323	NaN	NaN	NaN	NaN	NaN
1	1	1	0.2	NaN	0.6	0	0	0	1	2	324	NaN	NaN	NaN	NaN	0
0	1	0.4	0.4	NaN	NaN	1	0	0	0	2	325	310.083992022555	k	2	0	0
0	2	1	0.4	0.6	0.8	1	3	1	1	2	326	365.835784992669	j	1	1	0
0	1	0.4	0.6	0.4	NaN	0	1	1	0	2	327	431.129521981347	j	1	0	1
0	2	0.4	0.6	0.4	0.4	1	1	1	1	2	328	375.507696007844	j	1	0	0
0	1	0.6	0.6	0.4	0.4	0	1	1	1	2	329	289.181708998512	j	1	1	0
0	1	0.6	0.2	0.6	0.4	0	0	0	1	2	330	412.547674961388	j	1	1	1
0	2	0.6	0.2	0.4	0.4	0	2	1	1	2	331	222.902673995122	j	1	1	0
0	2	0.4	0.2	0.2	0.2	0	0	0	1	2	332	285.487580986228	k	2	1	1
1	2	0.4	0	0.2	0.2	1	0	0	0	2	333	270.598188042641	j	1	0	0
1	2	0.8	0	0.4	0.2	0	0	0	0	2	334	495.43705501128	j	1	1	0
0	1	0.2	0	0.2	0.6	0	4	1	0	2	335	473.607244028244	j	1	0	0
0	1	0.6	0.2	0.2	0	0	0	0	1	2	336	410.402301989961	k	2	0	1
1	2	0	0.8	0	0.4	1	2	1	0	2	337	347.466118982993	j	1	1	1
0	2	1	0.4	0.8	0.6	0	0	0	1	2	338	517.544565023854	k	2	1	1
0	1	0.4	0.2	0.6	0.2	0	2	1	0	2	339	453.770104038995	j	1	0	1
1	2	0.2	0.6	0.4	0.8	0	1	1	0	2	340	472.464130958542	j	1	0	0
0	1	0.8	0.2	0.4	0.4	0	1	1	1	2	341	560.42220100062	j	1	0	1
1	1	0.6	0.6	0.8	0.2	0	0	0	1	2	342	467.124281043652	j	1	0	1
0	1	0.4	0.4	0.6	0.8	1	0	0	0	2	343	405.663207988255	j	1	0	1
1	2	0.6	0	0.2	0.4	0	3	1	1	2	344	854.885889973957	j	1	0	1
1	2	0	0.8	0.6	0.4	0	0	0	1	2	345	393.064368981868	j	1	0	1
1	2	0.4	1	0	0.6	0	0	0	0	2	346	560.860575002152	j	1	1	0
1	2	0.4	0.4	1	0	0	0	0	0	2	347	432.821411988698	j	1	0	0
1	2	0.8	0.4	0.4	1	0	0	0	0	2	348	347.332693985663	j	1	1	0
1	1	0.4	1	0.4	0.6	0	5	1	0	2	349	836.363183974754	j	1	1	0
1	2	0.2	0.6	0.4	0.4	0	1	1	0	2	350	582.724388979841	j	1	1	1
0	2	0.4	0.6	0.6	1	1	0	0	1	2	351	494.241642998531	k	2	1	1
1	2	0.8	0	0.6	0.6	0	0	0	0	2	352	945.109470980242	k	2	1	1
0	1	0.6	1	1	0.4	1	3	1	1	2	353	426.633347989991	j	1	0	0
0	1	0.2	0.6	0.6	0	0	0	0	1	2	354	393.898647977039	j	1	0	1
0	2	0.6	0	0	0.6	1	2	1	0	2	355	524.843202962074	j	1	1	1
0	2	0.4	0.2	0	0.2	0	0	0	1	2	356	5.18197001656517	j	1	1	1
1	2	0.2	0	0.2	0	0	0	0	0	2	357	302.160673018079	j	1	1	1
0	1	0.4	0.4	0.2	0.6	0	3	1	0	2	358	457.0843190304	j	1	0	1
1	1	0	0.8	0.4	0	0	0	0	1	2	359	539.130382996518	j	1	1	0
0	2	0.4	0	0	0.2	0	2	1	0	2	360	521.856057981495	j	1	1	1
1	1	0.6	0.8	NaN	NaN	NaN	NaN	NaN	NaN	3	1	719.910568092018	k	2	0	NaN
1	1	0.2	0.2	0.6	NaN	1	0	0	NaN	3	2	768.423274857923	k	2	0	1
1	2	0.4	0.2	NaN	NaN	NaN	2	1	NaN	3	3	466.121156001464	j	1	0	NaN
1	2	0.4	1	0.4	0.2	1	0	0	1	3	4	501.841227989644	k	2	1	0
0	2	-0	1	1	0.4	1	0	0	0	3	5	901.678998954594	j	1	0	0
1	2	0.6	0.2	-0	1	1	0	0	0	3	6	448.359365109354	k	2	1	0
1	1	0	0.8	0.2	0.6	1	4	1	0	3	7	895.22062195465	j	1	0	1
0	1	0	1	0	0.2	1	0	0	1	3	8	456.404174212366	j	1	0	1
1	2	0.4	1	0.2	-0	0	2	1	0	3	9	731.698404066265	k	2	1	1
1	1	0.6	0.8	0	0	0	1	1	0	3	10	579.374887049198	j	1	1	0
0	2	0.4	0.4	1	0	1	1	1	1	3	11	468.931153882295	k	2	1	1
1	1	0.2	0.6	0.8	1	1	1	1	1	3	12	797.888833098114	k	2	0	0
0	2	0	0.8	0.4	0.8	1	1	1	1	3	13	529.526254162192	j	1	0	0
1	1	0	1	0.2	0.4	1	1	1	1	3	14	624.48094994761	k	2	0	1
0	1	0	0.8	0	0	1	0	0	1	3	15	541.324126068503	j	1	1	0
1	1	0.2	0.4	0.8	0	0	0	0	0	3	16	659.556253813207	j	1	1	1
0	2	0	0.6	0	0.2	1	3	1	1	3	17	422.698959009722	k	2	1	0
0	1	0	0.8	0.4	0.8	1	1	1	0	3	18	637.28553103283	j	1	0	0
0	2	0.4	1	0.6	0.4	0	1	1	1	3	19	736.628214130178	j	1	1	1
1	2	0.4	0.6	1	0	1	0	0	1	3	20	848.661088151857	k	2	1	1
1	1	0.2	0.2	0	0.6	0	2	1	1	3	21	491.990206064656	j	1	1	0
0	2	0.4	0.6	0.6	1	0	1	1	0	3	22	723.133830120787	j	1	1	1
0	1	0	0.4	0.2	0.6	1	1	1	1	3	23	639.235119102523	k	2	1	1
1	1	0.6	-0	0.4	0.6	0	0	0	1	3	24	663.661275990307	j	1	1	1
1	1	0.4	0.8	-0	0.4	1	0	0	0	3	25	545.2065479476	k	2	1	1
1	2	0.6	0.8	0.6	0.2	1	3	1	1	3	26	529.065262991935	k	2	1	1
1	2	0.4	1	0.8	0.8	0	0	0	1	3	27	596.72881080769	j	1	1	1
1	1	0.6	0.6	0.8	-0	1	2	1	0	3	28	445.877613034099	k	2	1	1
0	2	0.4	0.8	1	0.8	1	1	1	0	3	29	543.492736993358	j	1	1	1
1	1	0.2	0.4	0.6	1	1	1	1	1	3	30	781.836502021179	k	2	1	1
0	2	0.2	0.6	0.8	0.6	1	1	1	1	3	31	600.142614915967	k	2	1	1
0	2	0.6	0.4	0.6	0.4	1	0	0	1	3	32	523.434805916622	j	1	1	1
1	2	0.6	0.8	0.4	0.6	1	0	0	0	3	33	514.235734008253	j	1	0	0
0	2	0.6	0.2	0.6	0.4	1	0	0	0	3	34	668.164887931198	j	1	1	0
1	2	0.4	0.4	0.2	0.6	0	0	0	0	3	35	420.386847108603	j	1	1	1
1	1	0.4	0.2	0.4	0.8	1	5	1	1	3	36	734.295425005257	j	1	1	1
1	2	1	0.4	0.4	0.2	0	1	1	0	3	37	551.911089103669	j	1	0	0
0	1	0.8	0.6	0.2	0.4	1	1	1	1	3	38	497.06720514223	k	2	0	0
1	2	0.6	0.2	1	0.2	1	1	1	1	3	39	490.527016110718	k	2	0	1
0	1	0.8	0	0.8	1	0	1	1	1	3	40	421.583508141339	j	1	0	1
1	2	1	0.4	0.6	0.8	0	1	1	1	3	41	597.499724011868	k	2	0	1
1	1	0.4	0.2	0.8	0.6	0	1	1	1	3	42	461.897003930062	j	1	0	1
0	1	0.4	0	0.4	1	1	0	0	1	3	43	392.428412102163	j	1	0	1
0	1	1	0.2	0.4	0.4	0	0	0	0	3	44	531.191805144772	k	2	0	1
1	2	0.8	0.2	1	0.8	0	3	1	1	3	45	434.107587905601	j	1	0	1
0	2	0.8	-0	0.8	1	1	0	0	1	3	46	403.764872113243	k	2	0	1
1	1	0.2	0.2	1	0.4	0	2	1	0	3	47	471.070360857993	k	2	0	1
0	2	0.4	-0	0.8	0.8	1	1	1	0	3	48	493.965863017365	j	1	0	1
1	1	1	0.4	0.2	0.8	1	1	1	1	3	49	542.416020995006	k	2	0	1
1	1	0.2	0.6	1	0.4	1	0	0	1	3	50	465.009289095178	k	2	0	1
0	2	0.2	0	0.4	0.2	1	2	1	1	3	51	533.1066979561	k	2	0	1
1	1	0.2	0.8	0.2	1	1	1	1	0	3	52	548.858704045415	j	1	1	0
0	1	0.4	0.8	0.8	0.2	1	0	0	1	3	53	422.43130505085	j	1	1	1
1	1	0	0.4	0.8	0.8	0	0	0	0	3	54	464.349864982069	j	1	1	1
0	1	0.4	0.2	0.4	0.8	1	0	0	0	3	55	456.775426166132	k	2	1	1
1	2	-0	0.8	0.2	0.2	1	4	1	1	3	56	426.886787870899	j	1	1	0
1	1	0.4	0.6	0.2	0.4	0	1	1	0	3	57	411.548021947965	j	1	0	0
1	2	0.8	0.8	0.8	0.2	0	1	1	1	3	58	749.323126859963	k	2	1	1
1	1	0	1	0.4	0.8	1	1	1	1	3	59	533.455794909969	k	2	0	1
1	1	0.4	1	0	0.8	1	0	0	1	3	60	608.910531969741	j	1	1	0
0	2	0.6	0.4	0.8	0.4	1	2	1	1	3	61	559.339704923332	k	2	1	1
0	1	-0	0.6	1	0	1	1	1	0	3	62	435.545440064743	j	1	1	1
0	2	0.2	0.2	0.4	1	0	1	1	1	3	63	701.063573127612	j	1	1	1
1	1	0.4	1	0.6	0.4	0	1	1	1	3	64	421.762689016759	k	2	1	1
0	1	0	0.4	1	0.2	1	0	0	1	3	65	517.315237084404	j	1	1	1
0	1	0.2	0.6	0.4	1	0	0	0	0	3	66	463.954661041498	j	1	1	1
0	1	0.2	-0	0.6	0.4	0	0	0	0	3	67	368.54145093821	j	1	1	1
1	2	0.4	0.4	0.2	0.6	1	4	1	1	3	68	458.413765067235	k	2	1	1
1	2	0.6	0.4	0.4	-0	1	0	0	1	3	69	859.533059876412	k	2	0	0
0	1	0.6	0.2	-0	0.6	0	2	1	0	3	70	476.554302033037	k	2	1	1
0	1	0.6	0.8	0.2	0.6	0	0	0	1	3	71	639.825477031991	j	1	0	0
0	2	0.2	0	0.6	0.4	1	2	1	0	3	72	552.789375884458	j	1	0	1
1	2	0.6	-0	0.2	0.6	0	0	0	1	3	73	375.473265070468	k	2	1	0
0	1	0.6	0	0.6	0.2	0	2	1	0	3	74	699.004726950079	j	1	0	1
0	2	0.6	0.4	-0	0.2	1	1	1	0	3	75	771.519860019907	j	1	1	1
1	2	0.4	0	0.4	0.6	0	0	0	1	3	76	350.260552018881	k	2	0	0
1	2	0.6	0.6	0.4	0.4	0	0	0	0	3	77	295.08644901216	j	1	1	0
0	1	1	0	0.6	-0	0	3	1	1	3	78	256.451292894781	k	2	1	0
1	2	0.6	0	0.6	0.4	0	1	1	0	3	79	512.012554099783	j	1	0	0
0	1	0.2	0	0	0.6	0	1	1	1	3	80	353.768665110692	j	1	0	0
1	2	0.8	-0	0.6	0	0	1	1	1	3	81	540.681981947273	k	2	0	1
1	2	0.8	0.2	0.8	0.2	0	0	0	1	3	82	452.728518983349	k	2	0	1
0	2	0.6	0.6	0.8	0.8	0	0	0	0	3	83	631.258261855692	j	1	0	1
1	2	0.8	1	0.6	0.8	0	0	0	0	3	84	501.776105025783	j	1	0	1
0	2	0.2	0	0.8	0.6	0	0	0	0	3	85	487.917446065694	k	2	0	1
1	1	0.8	0	0.2	0.6	0	5	1	1	3	86	609.765128931031	k	2	0	1
1	2	0.2	0.4	0.2	0.8	1	1	1	0	3	87	714.078633114696	k	2	1	0
0	1	1	0.4	0.8	0.2	1	1	1	1	3	88	654.141948092729	k	2	0	1
1	2	1	0.4	0.4	0.8	0	1	1	1	3	89	389.374639140442	k	2	1	1
0	2	1	0.2	0.4	1	1	0	0	1	3	90	574.820630019531	j	1	0	0
1	1	0.2	0.2	1	0.4	0	2	1	1	3	91	624.409946845844	j	1	1	0
1	1	1	0	0.2	1	1	0	0	1	3	92	607.541754841805	k	2	0	0
0	2	0.8	0	1	0.4	1	2	1	0	3	93	480.185926891863	k	2	0	1
0	2	0.6	0	0.8	1	1	0	0	1	3	94	474.015888990834	k	2	0	1
1	2	0.4	0	0.6	0.8	1	0	0	0	3	95	442.462378880009	j	1	0	1
1	1	0.4	0.4	1	0.2	1	3	1	0	3	96	477.799353888258	k	2	0	1
1	1	0.4	0.6	0.4	0.4	1	0	0	1	3	97	453.356042038649	k	2	0	1
1	2	0.4	0	0.4	0.6	0	2	1	0	3	98	649.676186032593	j	1	0	1
0	1	0.2	0.8	0.4	0.4	1	1	1	0	3	99	515.09675802663	j	1	1	0
1	1	0.4	0.4	0.8	0.4	0	0	0	1	3	100	418.251164956018	j	1	1	1
0	1	1	0	0.4	0.8	1	0	0	0	3	101	347.774446941912	j	1	1	1
1	1	0.6	0.2	0	0.4	0	0	0	0	3	102	467.784488108009	k	2	1	1
1	2	0.2	0.2	0.4	0.4	1	4	1	1	3	103	646.566222887486	k	2	0	1
0	1	1	0.4	0.2	0	1	1	1	0	3	104	447.195881977677	k	2	0	0
1	2	0.8	0	0.2	0.2	0	1	1	1	3	105	480.583037948236	j	1	1	0
1	2	0.6	-0	0	1	1	0	0	1	3	106	378.806277178228	j	1	1	1
1	1	0.8	0.4	1	0.2	0	2	1	1	3	107	595.971327042207	k	2	0	1
0	2	0.6	0.4	-0	0	0	1	1	0	3	108	415.231208084151	k	2	0	0
0	2	0.6	0.6	0.6	0.8	1	0	0	1	3	109	453.724086983129	k	2	0	1
1	2	1	0.6	0.6	0.6	1	0	0	0	3	110	526.757525047287	k	2	1	0
1	1	0.6	0.8	0.8	-0	1	3	1	1	3	111	576.754729961976	k	2	0	1
0	1	0.6	0.2	0.6	0.6	1	0	0	1	3	112	481.814984930679	k	2	0	1
1	1	0.8	0.6	0.6	0.6	0	0	0	0	3	113	381.080189021304	k	2	0	1
1	2	0.2	0.6	0.6	0.6	0	3	1	0	3	114	452.10882415995	k	2	0	0
0	2	1	0.2	0.2	0.8	1	0	0	1	3	115	303.16180200316	j	1	1	0
0	1	0.4	0.4	0.8	0.6	1	2	1	0	3	116	527.183366939425	k	2	0	1
1	2	0.4	0	0.2	0.2	0	1	1	0	3	117	898.078462807462	k	2	0	0
0	2	0.6	0.6	0.4	0.4	0	0	0	1	3	118	569.798710057512	k	2	1	0
0	1	0.6	1	0.4	0.2	0	2	1	1	3	119	452.596009941772	k	2	1	0
0	1	0.4	0.6	1	0.6	0	0	0	1	3	120	469.938911963254	j	1	1	1
1	2	-0	0	0.6	0.4	0	2	1	0	3	121	544.250160921365	k	2	0	0
0	1	0.2	0.8	0.6	1	0	1	1	0	3	122	462.692147120833	j	1	1	1
1	2	0.4	0.2	-0	0.6	0	1	1	1	3	123	456.681062001735	j	1	1	0
1	1	0.4	0.6	0.8	-0	0	1	1	1	3	124	500.401922967285	k	2	1	1
1	2	0.6	0.6	0.2	0.8	1	1	1	1	3	125	514.829688007012	k	2	1	1
0	1	0	0.8	0.6	0.2	1	1	1	1	3	126	327.306509017944	j	1	1	1
1	2	0.6	-0	0.6	0.6	0	1	1	1	3	127	382.924788864329	k	2	1	1
0	2	0.4	0.4	-0	0.8	0	0	0	1	3	128	343.639101134613	k	2	1	1
1	2	0.4	0.2	0.4	-0	0	0	0	0	3	129	410.389502067119	k	2	0	0
0	1	0	0.4	0.8	0.6	0	3	1	1	3	130	564.088887069374	k	2	1	1
0	1	0	0.6	0.4	0.4	0	0	0	1	3	131	419.189033797011	j	1	1	1
0	2	0.8	0.2	0.4	0.4	1	2	1	0	3	132	382.625760976225	k	2	0	1
1	1	0.8	0.6	0.6	0.4	0	1	1	0	3	133	382.337522925809	k	2	1	1
1	2	0.4	0.4	0.8	0.6	0	1	1	1	3	134	431.008591782302	k	2	0	1
0	1	0.2	0.8	0.6	0.8	1	1	1	1	3	135	482.919968897477	k	2	1	1
0	2	0.8	1	0.4	0.6	1	1	1	1	3	136	417.967440094799	j	1	0	1
0	2	0.6	0.8	0.8	0.8	0	0	0	1	3	137	629.157348070294	j	1	0	1
0	2	0.6	0.6	0.6	0.8	1	0	0	0	3	138	484.21075893566	j	1	0	1
1	2	1	0.6	0.6	0.6	0	0	0	0	3	139	487.604311900213	k	2	0	1
1	2	0.2	1	1	0.6	1	0	0	0	3	140	583.066571038216	j	1	0	1
1	1	0.2	0.2	0.8	0.4	0	5	1	1	3	141	409.18589499779	j	1	1	1
1	2	1	1	0.2	1	0	1	1	0	3	142	587.894794065505	j	1	0	1
0	1	0.2	0.6	0.2	0.2	1	1	1	1	3	143	334.067495074123	j	1	1	1
1	1	0.2	0.2	0.6	1	0	0	0	1	3	144	477.49866405502	k	2	1	1
0	1	0.6	0.6	0.2	0.6	1	0	0	0	3	145	437.631767010316	k	2	0	0
1	1	0.4	0.4	0.6	0.2	0	0	0	0	3	146	407.040185993537	k	2	0	1
0	2	0.6	0.6	1	0.2	0	4	1	1	3	147	483.434831025079	k	2	0	1
0	1	0.2	1	0.4	0.6	1	1	1	0	3	148	418.954367982224	j	1	0	1
0	1	0.2	1	0.2	0.6	0	0	0	1	3	149	357.531702145934	k	2	1	0
1	1	0.8	0	1	0.2	0	0	0	0	3	150	629.029845818877	k	2	1	1
1	2	0.4	0.4	0.6	0.4	1	3	1	1	3	151	630.498863058165	k	2	1	0
0	2	0.8	0.6	0.4	0	1	0	0	1	3	152	521.897998871282	k	2	0	0
1	1	0.8	-0	0	1	1	2	1	0	3	153	385.900107910857	j	1	1	1
1	1	0.4	0.2	-0	0.8	1	0	0	1	3	154	348.939342191443	k	2	1	1
1	1	0.8	0.4	0.2	-0	1	0	0	0	3	155	388.080131961033	j	1	1	1
0	2	1	0.8	0.8	0.4	1	3	1	0	3	156	494.328225031495	j	1	0	1
0	2	-0	1	1	0.4	1	0	0	1	3	157	421.551891136914	j	1	0	1
0	1	1	0.6	0.4	0.2	1	2	1	0	3	158	470.674480078742	j	1	0	0
0	2	1	0.8	-0	1	0	1	1	0	3	159	384.315533796325	k	2	0	1
1	2	0.2	0.6	1	1	0	0	0	1	3	160	396.459803916514	j	1	0	1
1	2	-0	0.6	0.2	1	1	0	0	0	3	161	427.515681833029	j	1	0	1
0	2	0.8	0.4	-0	0.2	1	0	0	0	3	162	358.865208923817	j	1	0	1
0	1	0.4	0	1	-0	0	4	1	1	3	163	584.203619975597	j	1	0	1
1	1	0.6	0.4	0.4	0.8	0	0	0	1	3	164	360.86891614832	k	2	0	1
0	2	0.4	0.2	0.8	-0	1	2	1	0	3	165	497.188222128898	j	1	0	1
1	1	0.6	0.2	0.6	0.4	1	1	1	0	3	166	348.604365019128	j	1	1	0
1	1	-0	0.8	0.2	0.4	1	0	0	1	3	167	356.20223893784	k	2	0	0
0	1	0.4	0.6	-0	0.2	1	0	0	0	3	168	309.877588879317	k	2	0	1
0	2	0	0.2	0.4	0.6	0	3	1	1	3	169	541.945690987632	k	2	0	1
0	1	0.6	0.6	0.4	-0	0	1	1	0	3	170	345.149846980348	k	2	1	0
0	2	-0	0.6	0	0.4	0	1	1	1	3	171	337.607064982876	j	1	1	0
1	2	0	1	0.6	0.6	0	0	0	1	3	172	364.647808019072	k	2	1	1
1	2	0	0.2	1	0.6	0	0	0	0	3	173	453.128042863682	j	1	1	1
0	1	0.8	0.4	0.6	0	0	3	1	1	3	174	380.852953065187	j	1	1	1
0	2	0.2	0.2	0.2	1	1	1	1	0	3	175	545.417750021443	j	1	1	1
0	1	0.8	0.6	0.4	0.2	0	1	1	1	3	176	520.105987088755	k	2	1	1
1	1	0	0.4	0.6	0.2	0	0	0	1	3	177	402.964133070782	k	2	1	1
1	1	1	1	0.4	0.6	1	0	0	0	3	178	531.262035947293	j	1	0	0
1	2	0.6	0.2	0.2	0.4	1	3	1	1	3	179	685.457709012553	k	2	0	0
1	2	0.2	0.6	0.6	1	1	0	0	1	3	180	527.580386027694	k	2	0	1
1	2	0.4	0.6	0.2	0.6	1	0	0	0	3	181	390.832730103284	j	1	1	0
1	1	-0	0.4	1	0.4	1	3	1	0	3	182	447.326874127612	k	2	1	0
0	2	0.6	1	0.6	0.2	0	1	1	0	3	183	554.637901019305	k	2	1	1
1	1	0.6	0.4	0.4	0.6	1	1	1	1	3	184	499.808064894751	k	2	1	1
0	2	0.4	0.6	1	0.4	0	1	1	1	3	185	405.0659511704	k	2	0	0
0	1	0.8	0.6	0.4	1	1	1	1	1	3	186	533.063428942114	k	2	0	0
1	2	0	0.6	0.4	0.4	0	1	1	1	3	187	350.394245004281	k	2	0	1
0	1	0.6	0.6	0.8	0.4	0	1	1	1	3	188	543.738621054217	k	2	0	1
0	1	0.4	0	0.6	0	0	0	0	1	3	189	522.424559108913	k	2	0	1
0	2	0.2	1	0	0.8	1	2	1	1	3	190	577.914322027937	k	2	1	0
1	1	0.2	0.2	0.4	0.6	0	1	1	0	3	191	522.775669815019	k	2	1	0
1	1	0.4	0.2	0.2	1	1	0	0	1	3	192	470.318955136463	k	2	1	1
0	1	0.6	0.4	0.2	0.2	1	0	0	0	3	193	479.198324028403	j	1	0	0
0	2	0.4	0.8	1	0.4	1	3	1	1	3	194	439.855087082833	k	2	0	0
1	1	0.2	0.8	0.6	0.2	0	1	1	0	3	195	511.890919180587	k	2	0	1
0	1	0.8	0.4	0.2	0.4	1	0	0	1	3	196	435.513175092638	j	1	0	1
1	2	0.4	0.6	0.4	0.6	0	2	1	1	3	197	500.531142111868	j	1	1	0
0	2	0.6	0.8	0.6	0.8	1	0	0	1	3	198	454.74606892094	j	1	0	0
0	1	0.8	0.2	0.8	0.2	0	2	1	0	3	199	397.225120803341	k	2	1	0
1	1	1	0.8	0.2	0.6	0	0	0	1	3	200	414.458984043449	j	1	0	0
0	1	-0	0.6	1	0.2	1	0	0	0	3	201	384.892913978547	j	1	0	1
0	2	0.6	0.8	0.6	0.6	0	3	1	0	3	202	473.838358884677	j	1	0	1
1	1	1	1	-0	1	0	1	1	0	3	203	453.784273006022	k	2	0	1
0	2	-0	-0	0.6	-0	0	1	1	1	3	204	445.178923895583	j	1	0	1
0	2	0.8	0.8	-0	1	1	0	0	1	3	205	303.012724965811	j	1	0	1
0	1	0.8	0.2	1	0.6	1	2	1	1	3	206	272.733472986147	k	2	0	1
0	2	0	0.8	0.8	-0	0	1	1	0	3	207	322.611283976585	j	1	1	0
1	1	0.4	0.2	0.8	0.8	0	1	1	1	3	208	243.20594407618	k	2	1	0
0	2	0.2	1	0.8	0.8	1	1	1	1	3	209	299.958972027525	k	2	1	1
0	2	0.4	0.2	1	0.2	0	0	0	1	3	210	222.344727953896	j	1	1	1
1	1	1	0.2	0.2	0.8	1	2	1	1	3	211	272.04448916018	k	2	1	1
0	1	1	-0	0.2	0.2	1	0	0	1	3	212	289.333235938102	j	1	0	0
1	2	0.2	0.6	0.2	1	1	2	1	0	3	213	258.359762141481	j	1	1	1
1	1	0.6	0	1	0.2	0	1	1	0	3	214	289.876814000309	j	1	1	0
1	1	0.2	-0	0	0.6	1	0	0	1	3	215	322.902173036709	j	1	1	1
0	2	0	0.8	0.6	1	1	2	1	1	3	216	285.580900963396	k	2	1	1
1	1	0.4	0.6	-0	0	1	1	1	0	3	217	528.872906928882	j	1	0	0
1	1	0.4	0.8	0.4	0.8	1	0	0	1	3	218	367.863512830809	j	1	1	0
0	1	0.2	0.4	0.8	0.4	1	0	0	0	3	219	417.542109033093	j	1	1	1
0	2	0.4	0.4	0.8	-0	0	3	1	1	3	220	553.353316849098	j	1	1	1
0	2	0.4	0.2	0.4	0.4	1	0	0	1	3	221	490.890981862321	j	1	1	1
1	1	0.6	0.8	0.4	0.8	0	2	1	0	3	222	451.584653928876	j	1	0	0
1	2	0.2	0.4	0.2	0.4	1	1	1	0	3	223	320.452331099659	k	2	0	0
0	1	0.4	0.6	0.6	0.2	1	1	1	1	3	224	439.62838104926	k	2	0	1
1	1	0.4	0	0.4	0.2	0	0	0	1	3	225	520.157235907391	k	2	0	1
0	1	0.4	1	0.4	0.4	1	0	0	0	3	226	345.488157123327	j	1	1	0
1	2	0.6	0.2	0.2	0.6	1	3	1	1	3	227	565.627489006147	j	1	1	0
0	2	-0	0.4	0.2	1	1	0	0	1	3	228	428.279344923794	k	2	0	0
1	1	0.2	0.6	1	0.4	0	2	1	0	3	229	437.452821061015	j	1	1	1
1	2	0.2	0.8	-0	0.2	0	1	1	0	3	230	599.411315051839	j	1	1	0
0	2	0	0.4	0.8	0.6	1	0	0	1	3	231	442.809981061146	k	2	1	1
1	2	0.2	0.6	0.4	0.8	0	0	0	0	3	232	427.505696890876	j	1	1	1
0	1	0	0.6	0.6	-0	1	3	1	1	3	233	435.235186945647	j	1	1	1
1	1	0.4	0.4	0.6	0.6	0	0	0	1	3	234	534.098922042176	k	2	1	1
0	2	0.4	0	0.6	0.4	1	2	1	0	3	235	560.229923110455	j	1	1	1
1	1	0	0.4	0.4	0.6	1	1	1	0	3	236	584.093275014311	j	1	0	0
0	2	0.4	0	0	0.4	0	1	1	1	3	237	488.457676023245	k	2	0	0
0	1	0.8	0.4	0	0	1	1	1	1	3	238	625.967419939116	j	1	1	0
1	1	0	0.2	0.4	0.4	0	0	0	1	3	239	355.968120042235	k	2	0	0
0	2	0.4	0.2	0.4	0	1	2	1	1	3	240	445.602897088975	j	1	0	1
1	2	0.6	0.2	0.4	0	0	0	0	1	3	241	470.013397047296	j	1	0	1
1	1	0.2	0.4	0	0.4	1	2	1	0	3	242	576.888918876648	j	1	1	0
0	1	-0	0.6	0.4	0.6	1	0	0	1	3	243	416.779740946367	k	2	1	1
0	2	0.2	0.2	0.6	0.4	1	2	1	0	3	244	705.696298973635	j	1	1	0
1	2	0.6	0.4	0.2	0.6	1	0	0	1	3	245	414.097488857806	j	1	0	0
0	2	0.6	1	0.6	0.2	0	0	0	0	3	246	452.218140009791	j	1	1	0
0	1	0.8	0.8	0.6	0.4	0	3	1	0	3	247	408.129238057882	j	1	1	1
0	1	0.6	0.4	0.8	1	0	0	0	1	3	248	392.975382972509	j	1	1	1
0	1	0.4	0.2	0.4	0.8	0	0	0	0	3	249	321.188176050782	j	1	1	1
1	1	0.4	0.4	0.2	0.4	0	0	0	0	3	250	360.83380295895	k	2	0	0
1	2	1	0.6	1	0.6	1	4	1	0	3	251	468.058543046936	k	2	0	0
0	1	0.4	0.4	0.4	0.2	1	1	1	0	3	252	494.439634028822	k	2	0	1
1	2	0.8	0.4	1	0.4	1	1	1	1	3	253	440.634462982416	j	1	0	1
1	1	0.8	0.6	0.4	1	0	1	1	1	3	254	447.690662927926	k	2	1	0
0	2	1	0.4	0.8	0.4	0	1	1	1	3	255	466.139113996178	j	1	0	1
1	1	0.2	0.8	0.6	0.8	1	1	1	1	3	256	315.733531024307	k	2	1	1
1	2	1	0.2	1	0.6	0	1	1	1	3	257	396.818839944899	j	1	0	1
1	2	0.4	0.4	1	0.8	0	0	0	1	3	258	358.503855066374	k	2	1	0
1	1	0.6	0.8	0.8	1	1	2	1	1	3	259	456.362402997911	j	1	1	1
0	2	0.4	0.6	0.4	1	0	1	1	0	3	260	366.933978861198	k	2	0	0
0	1	0.2	0.2	0.8	0.4	1	1	1	1	3	261	410.497513134032	k	2	1	1
0	1	0.4	0.6	0.2	0.4	0	0	0	1	3	262	385.721646016464	j	1	1	1
0	2	0.4	-0	0.4	0.8	1	2	1	1	3	263	380.922764074057	j	1	0	1
0	1	0.4	0.6	0.6	0.2	0	1	1	0	3	264	446.033328073099	j	1	1	1
1	1	0.4	0.8	0.6	0.4	0	0	0	1	3	265	398.127355845645	j	1	1	1
1	1	0.4	0.8	0.8	0.6	1	0	0	0	3	266	351.601452101022	k	2	1	1
0	1	0.4	-0	0.8	0.8	1	0	0	0	3	267	368.48267307505	k	2	1	1
0	2	1	-0	0.4	0.6	0	4	1	1	3	268	492.618937976658	k	2	0	1
1	2	0.2	0.4	1	-0	1	0	0	1	3	269	445.668976986781	j	1	0	1
0	1	0.2	0.6	-0	0.8	0	2	1	0	3	270	590.98180802539	j	1	1	1
1	2	0.4	0.2	0.2	1	1	1	1	0	3	271	440.870111109689	k	2	0	1
1	2	0.2	0.4	0.4	0.6	1	0	0	1	3	272	410.872121108696	j	1	1	0
0	1	0.8	0	0.6	0.2	0	2	1	1	3	273	469.449158059433	j	1	1	1
1	2	0.2	0.2	0.4	0.4	0	1	1	0	3	274	436.873703030869	j	1	0	0
0	2	0.4	0.6	0.2	0	0	0	0	1	3	275	502.19115591608	k	2	0	1
1	1	0.8	0.4	0	0.4	0	2	1	1	3	276	495.624940143898	j	1	0	0
1	1	0	0.2	0.8	0.4	1	0	0	1	3	277	514.986182097346	j	1	0	1
0	2	0.2	0.6	0.4	0.2	0	2	1	0	3	278	410.914458101615	j	1	1	0
1	1	0.6	0	0	0.8	1	1	1	0	3	279	595.123114995658	k	2	0	1
1	2	0.4	0.8	0.6	0	1	1	1	1	3	280	532.786790980026	k	2	0	0
0	1	0.6	0.6	0.6	0.6	1	1	1	1	3	281	466.05560509488	j	1	0	1
1	2	0.8	0.2	0.4	0.6	1	1	1	1	3	282	463.816468138248	j	1	1	0
0	1	0.8	0	0.6	0.4	0	1	1	1	3	283	434.518883936107	k	2	0	1
1	2	0.6	0.8	0.2	0.6	0	1	1	1	3	284	515.846907161176	k	2	0	0
0	1	0.4	0.2	0.8	0.2	0	1	1	1	3	285	380.491373129189	k	2	0	1
1	2	0	0.8	0.6	0.8	0	1	1	1	3	286	437.877156073228	j	1	0	1
0	1	0.2	0.6	0.4	0.6	0	1	1	1	3	287	439.676587935537	k	2	0	1
1	2	0	0.6	0	0.4	0	1	1	1	3	288	423.687726026401	k	2	0	1
1	1	1	0.6	0.2	0	0	1	1	1	3	289	480.297991074622	j	1	0	1
0	2	0	0.4	0	0.2	1	1	1	1	3	290	426.261022919789	k	2	1	0
0	1	0.2	0.4	1	0	1	1	1	1	3	291	356.787594035268	k	2	0	1
0	2	0	0.6	0.4	1	1	1	1	1	3	292	491.754743037745	k	2	0	0
1	2	0.4	0.8	0	0.2	1	0	0	1	3	293	717.755488120019	j	1	1	0
0	1	0.8	0	0.2	0.4	0	2	1	1	3	294	679.842795943841	k	2	1	0
0	1	0.4	0.6	0	0.8	0	0	0	1	3	295	480.36920488812	k	2	0	0
0	2	0	0.4	0.8	0	0	2	1	0	3	296	929.602025076747	j	1	1	1
1	1	0.6	0	0.4	0	0	1	1	0	3	297	676.673470064998	j	1	1	0
0	1	0	0.4	0	0.4	1	0	0	1	3	298	492.165453033522	j	1	0	0
0	1	0.2	0.4	0	0	0	0	0	0	3	299	318.631801987067	k	2	1	0
1	1	0.8	0.6	0.4	0	0	0	0	0	3	300	368.43739496544	j	1	1	1
0	1	0	0.6	0.6	0.4	1	0	0	0	3	301	528.52361695841	k	2	1	1
1	2	0	0	0.4	0.4	0	5	1	1	3	302	418.381121940911	k	2	1	1
1	2	1	0.2	0	0.6	0	0	0	1	3	303	684.456231771037	j	1	1	1
0	2	-0	0.4	0.2	0	0	0	0	0	3	304	366.490171058103	k	2	0	0
0	1	0.8	0.6	0.6	0.6	0	3	1	0	3	305	480.210923124105	j	1	1	1
0	2	0.4	0.4	-0	0.2	1	1	1	0	3	306	558.689292054623	k	2	0	1
0	2	0.4	0.6	0.4	0.6	0	0	0	1	3	307	585.470036836341	k	2	1	0
0	2	0.4	0.2	0.6	0.4	0	0	0	0	3	308	377.622506115586	j	1	1	1
0	2	0.2	0	0.2	0.6	0	0	0	0	3	309	917.440260061994	k	2	1	1
1	1	0.2	0.2	0.6	-0	0	4	1	1	3	310	428.434858098626	j	1	0	0
0	2	0.6	0.2	0	0.2	1	1	1	0	3	311	375.694972928613	j	1	0	0
1	2	0.4	0	0.6	0.2	0	0	0	1	3	312	431.096820160747	j	1	0	1
0	2	0.2	0.4	0.4	0.6	0	0	0	0	3	313	433.356695109978	j	1	0	1
1	1	0.4	0.6	0.2	0	1	3	1	1	3	314	657.729848986492	k	2	1	0
0	1	0.4	-0	0.6	0.2	1	0	0	1	3	315	354.801555164158	j	1	1	1
1	2	0.4	0.2	0.2	0.4	1	2	1	0	3	316	671.446956926957	k	2	1	0
1	1	0.6	0.4	-0	0.6	0	1	1	0	3	317	446.612155996263	j	1	1	1
1	1	0.6	0.6	0.4	0.2	1	0	0	1	3	318	430.784279014915	j	1	0	0
0	1	0.8	0.2	0.6	0.4	1	0	0	0	3	319	474.776285002008	k	2	0	1
0	2	0.2	0	0.2	-0	0	3	1	1	3	320	482.177786994725	k	2	0	0
1	1	1	0.6	0.8	0.6	0	1	1	0	3	321	387.018389999866	k	2	0	1
1	2	0.2	-0	0.2	0.8	0	1	1	1	3	322	460.406936937943	k	2	1	0
1	2	0.6	0.2	-0	1	1	0	0	1	3	323	830.921764951199	j	1	1	1
1	2	0.8	0	0.2	-0	1	0	0	0	3	324	593.530817888677	k	2	0	0
0	1	0.4	0.2	1	0.2	1	3	1	1	3	325	345.146300969645	k	2	0	1
1	2	0.8	0.4	0.8	0.2	0	1	1	0	3	326	500.206507043913	j	1	0	1
0	2	0.2	0.4	0.8	0.4	1	0	0	1	3	327	410.495901014656	k	2	0	1
1	2	0.2	0.6	0.2	0.8	1	0	0	0	3	328	486.607325030491	j	1	1	0
0	2	0.4	0.6	0.6	0.2	0	0	0	0	3	329	366.224664030597	j	1	1	1
1	1	0.6	0	0.4	0.8	0	4	1	1	3	330	655.907266074792	j	1	1	0
0	2	0.6	0.2	0.6	0.6	1	1	1	0	3	331	416.012750938535	k	2	1	1
0	2	0.2	0.2	0.2	0	0	0	0	1	3	332	394.491659011692	k	2	0	0
1	1	0.6	0	0	0.6	1	2	1	1	3	333	595.378625905141	k	2	0	0
0	1	1	0	0.6	0.2	1	0	0	1	3	334	419.715394033119	k	2	0	1
1	2	0.6	0	0.2	0.2	1	2	1	0	3	335	400.717160198838	j	1	0	1
0	2	1	0	0.6	1	1	0	0	1	3	336	375.296619022265	j	1	1	0
0	2	0.2	0.6	0	0.6	0	0	0	0	3	337	387.431676965207	k	2	0	0
1	2	1	0.6	0.2	0	1	0	0	0	3	338	724.274549167603	k	2	0	1
1	1	0.8	0	1	0.6	0	4	1	0	3	339	397.060931893066	j	1	0	1
0	1	0.6	0.6	0.8	1	1	0	0	1	3	340	670.684437034652	k	2	0	1
1	1	1	-0	0.6	0.8	0	0	0	0	3	341	486.8361169938	j	1	0	1
0	2	1	0.6	1	0.2	0	3	1	0	3	342	393.593488028273	k	2	0	NaN
1	2	0.4	0.2	1	1	1	0	0	1	3	343	NaN	NaN	NaN	NaN	0
1	2	0.6	-0	NaN	1	0	0	0	0	3	344	370.67288486287	j	1	0	0
0	1	0.2	0.6	1	0.6	1	3	1	0	3	345	397.710837889463	k	2	0	1
0	1	0.6	0.8	0.2	0.6	0	0	0	1	3	346	316.14393601194	j	1	0	1
0	1	0.4	0.2	0.6	0.2	0	0	0	0	3	347	345.20787303336	j	1	0	1
0	2	1	0.6	0.6	NaN	0	3	1	0	3	348	529.019470093772	k	2	0	1
0	1	0.2	0.4	0.4	0.6	0	1	1	0	3	349	337.306288070977	k	2	1	0
0	1	0.2	0.4	0.4	1	0	0	0	1	3	350	850.462449947372	k	2	1	1
1	2	0.4	0.6	1	0.4	0	2	1	1	3	351	348.940229974687	k	2	0	1
0	2	1	0.2	0.4	0.4	0	0	0	1	3	352	559.354267083108	k	2	0	1
0	1	0.6	0.4	0.4	0.4	0	2	1	0	3	353	400.33454191871	k	2	1	1
0	1	0	0.2	0.4	1	0	0	0	1	3	354	456.649264087901	k	2	0	0
1	2	0.6	0.2	1	0.4	0	2	1	0	3	355	433.593937195837	k	2	0	1
1	1	0.4	0.2	0	0.4	0	1	1	0	3	356	394.966963911429	j	1	0	1
0	2	0.4	0	0.6	0	0	1	1	1	3	357	451.410678913817	j	1	0	1
0	2	0.4	0.4	0.4	0.4	0	0	0	1	3	358	367.006405955181	k	2	1	0
1	2	0.2	0.8	0.4	0.4	1	0	0	0	3	359	397.470548981801	k	2	1	1
1	1	0.2	0	0.4	0.6	1	3	1	1	3	360	335.586143191904	j	1	1	0
1	1	0.8	0.6	NaN	NaN	NaN	NaN	NaN	NaN	4	1	552.433889359236	j	1	1	NaN
1	1	0.6	0.2	0.6	NaN	1	0	0	NaN	4	2	502.317864447832	j	1	1	1
0	1	0.6	0	0.2	0.6	1	0	0	0	4	3	484.601937234402	j	1	0	0
0	1	0.6	1	0.6	0.2	0	0	0	0	4	4	583.565820008516	k	2	0	1
1	2	0.2	0.4	NaN	NaN	NaN	4	1	NaN	4	5	499.25022944808	j	1	0	NaN
0	2	1	0	0.2	0.6	1	0	0	1	4	6	490.174785256386	j	1	1	0
1	1	-0	0.6	0.6	0.6	0	2	1	0	4	7	880.12757897377	j	1	0	NaN
1	1	0.2	0.6	-0	0	1	0	0	1	4	8	NaN	NaN	NaN	NaN	0
0	2	0.8	0.4	0	0.2	1	2	1	0	4	9	648.807933554053	j	1	1	1
0	1	0.8	0.6	NaN	-0	1	1	1	0	4	10	541.560484096408	j	1	1	0
1	1	0.8	0	0.6	0.4	0	0	0	1	4	11	524.012429639697	j	1	1	1
1	2	0.6	0.4	0.4	NaN	0	2	1	1	4	12	552.949855104089	k	2	1	1
0	1	0	0.4	0	0.6	1	1	1	0	4	13	403.078088536859	j	1	1	1
0	1	0	0.8	0.4	0.4	0	0	0	1	4	14	498.359212651849	j	1	1	1
0	2	0.2	0.6	0.4	0	0	2	1	1	4	15	495.577998459339	j	1	1	1
1	1	0.4	0.2	0.8	0.4	0	1	1	0	4	16	595.597565174103	k	2	1	1
0	1	0	0.4	0.2	0.6	1	0	0	1	4	17	486.638886854053	j	1	1	1
0	1	-0	0.8	0.4	0.2	0	0	0	0	4	18	444.829951971769	k	2	1	1
0	1	0.4	1	0.8	0.4	0	0	0	0	4	19	681.989217177033	j	1	1	1
1	1	0.4	0.4	1	0.8	0	0	0	0	4	20	653.654351830482	k	2	1	1
1	2	0.6	0.2	0.6	0.8	1	5	1	1	4	21	666.266977787018	j	1	1	1
1	2	0.4	0.4	0.2	0.4	1	0	0	1	4	22	498.906100168824	j	1	0	0
1	2	0.4	0.6	0.4	0.2	0	0	0	0	4	23	478.92851382494	j	1	0	1
1	1	0.4	0	0.4	1	1	3	1	0	4	24	401.364294812083	k	2	1	1
1	1	0.2	1	0	0.4	1	0	0	1	4	25	409.794725477695	j	1	0	0
1	2	0.6	0.8	0.4	0.4	1	2	1	0	4	26	750.898404046893	j	1	0	1
1	2	0.6	0.8	0.6	0.2	0	0	0	1	4	27	681.14791251719	j	1	0	1
0	2	0.6	0.6	0.6	0.6	0	0	0	0	4	28	584.039963781834	k	2	0	NaN
1	1	-0	0.6	0.2	0	1	3	1	0	4	29	555.851630866528	j	1	0	1
1	2	0.2	0.6	0.6	0.6	1	1	1	0	4	30	NaN	NaN	NaN	NaN	0
0	1	0.2	0.8	-0	0.6	1	1	1	1	4	31	744.07347664237	j	1	1	0
1	2	0.8	0.4	NaN	-0	0	1	1	1	4	32	682.721979916096	j	1	1	0
1	1	0.4	0.8	0.8	NaN	0	1	1	1	4	33	616.561247035861	j	1	1	1
1	2	0.6	0.2	0.4	0.8	0	1	1	1	4	34	591.303277760744	k	2	0	0
1	2	0.4	0.6	0.6	0.8	0	0	0	1	4	35	792.999662458897	k	2	0	1
1	2	0.2	0.4	0.4	0.6	1	0	0	0	4	36	624.969832599163	k	2	1	0
1	2	0.8	0.4	0.4	0.4	1	0	0	0	4	37	988.995781168342	j	1	0	0
1	1	0.4	0.6	0.8	0.4	1	4	1	1	4	38	799.8619787395	k	2	1	1
0	1	0.2	0.4	0.6	0.8	1	0	0	1	4	39	637.171324342489	j	1	1	1
0	2	0.6	0.2	0.8	0.4	1	2	1	0	4	40	828.951315954328	j	1	0	1
1	1	0.8	0.6	0.4	0.6	0	1	1	0	4	41	592.693084850907	k	2	1	1
1	1	0.2	0.2	0.6	0.6	1	0	0	1	4	42	455.031154677272	j	1	1	1
1	1	0	0	0.2	0.6	1	0	0	0	4	43	545.995324850082	j	1	0	0
0	2	0.6	0.4	0.6	0.4	1	3	1	1	4	44	590.045787394047	j	1	1	0
0	2	0.2	0.6	0.4	0	0	0	0	1	4	45	572.147127240896	k	2	1	1
1	2	0.2	0.2	0.6	0.4	1	0	0	0	4	46	608.733316883445	j	1	0	0
1	1	0.4	-0	0	0.2	1	3	1	0	4	47	743.286406621337	j	1	1	0
0	1	0.4	0	-0	0.2	1	0	0	1	4	48	627.226015552878	j	1	0	0
0	1	1	0.2	0.4	-0	0	0	0	0	4	49	623.091680929065	j	1	0	1
1	1	0.4	0.4	1	0.4	0	0	0	0	4	50	748.020932078362	k	2	0	1
0	2	0	0.2	0.2	0.6	1	4	1	0	4	51	683.886466547847	j	1	1	0
1	2	0	1	0.2	0.4	0	0	0	1	4	52	672.556513920426	k	2	0	0
1	1	0.6	0.4	0.4	1	1	2	1	0	4	53	941.267756745219	j	1	0	1
1	1	0.4	0.2	0.6	0	1	0	0	1	4	54	579.12932895124	k	2	1	0
0	1	0.6	-0	0.2	0.6	1	0	0	0	4	55	487.476883456111	j	1	1	1
1	2	0	1	0	0.2	1	3	1	0	4	56	587.114488705993	k	2	0	1
0	1	0.8	-0	-0	0.2	0	1	1	0	4	57	961.407944560051	k	2	1	NaN
0	1	1	0.4	-0	0	0	0	0	1	4	58	NaN	NaN	NaN	NaN	0
0	2	0	1	0	-0	1	2	1	1	4	59	842.674503102899	j	1	1	0
0	1	0.8	0.6	NaN	-0	0	1	1	0	4	60	773.741202428937	j	1	0	NaN
1	2	0.8	0.4	1	NaN	1	1	1	1	4	61	845.117004588246	j	1	0	0
0	2	0.2	0.2	0.8	0.8	1	0	0	1	4	62	688.033549115062	j	1	0	1
0	1	0.6	0	0.8	1	0	2	1	1	4	63	NaN	NaN	NaN	NaN	0
0	2	0.4	0.8	0.2	0.8	0	1	1	0	4	64	586.742527782917	j	1	0	1
0	2	0.2	-0	0.4	NaN	0	0	0	1	4	65	631.413577124476	k	2	0	1
1	1	0.6	0.8	NaN	0.2	0	2	1	1	4	66	695.369448512793	j	1	1	0
1	2	0.2	-0	0.2	0.4	1	1	1	0	4	67	554.29950542748	j	1	0	1
0	2	0.4	0.2	0.2	0.8	1	0	0	1	4	68	662.128748372197	k	2	1	0
0	2	0.8	-0	0.2	0.2	1	0	0	0	4	69	483.787372708321	j	1	1	1
0	1	0.4	0.4	0.8	0.2	1	3	1	1	4	70	850.048309192061	j	1	0	0
1	1	0.4	1	0.4	-0	0	0	0	1	4	71	713.108003139496	j	1	1	0
1	1	0	0.2	1	0.4	1	0	0	0	4	72	748.271515592933	j	1	1	1
0	2	0.6	-0	-0	0.2	0	3	1	0	4	73	667.012698948383	j	1	1	1
1	2	0.6	0.2	-0	0.2	0	0	0	1	4	74	428.562179207802	j	1	0	0
0	2	0.8	0.6	0.6	-0	0	0	0	0	4	75	916.96042008698	j	1	0	NaN
0	1	0.2	0	0.2	1	1	3	1	0	4	76	751.971703022718	k	2	1	1
0	1	0.4	1	0	0.8	0	0	0	1	4	77	646.758479997516	j	1	0	0
1	2	1	0.2	0.8	0.6	0	2	1	0	4	78	NaN	NaN	NaN	NaN	0
0	2	0.6	0.4	NaN	0.4	0	0	0	1	4	79	926.828902214766	k	2	0	0
0	2	0.2	0.2	0.6	NaN	1	0	0	0	4	80	813.399968668818	j	1	0	1
0	2	0.6	0.4	0.2	0.6	0	0	0	0	4	81	778.74605730176	j	1	0	1
0	1	0.4	0.6	0.4	0	0	4	1	0	4	82	968.021184206009	k	2	0	1
0	2	0.2	0.6	0.6	0.2	1	1	1	0	4	83	692.990904673934	j	1	0	1
0	2	0.8	1	0.2	0.4	1	0	0	1	4	84	529.160043224692	k	2	0	1
1	2	0.2	-0	0.8	0.2	0	0	0	0	4	85	591.364797204733	j	1	0	1
0	2	0.8	0.2	0.2	0.8	0	0	0	0	4	86	482.438152655959	k	2	0	1
0	1	0	0.8	0.4	0.6	0	4	1	1	4	87	952.232904732227	j	1	1	0
1	2	1	0.6	0.8	0.2	0	1	1	0	4	88	484.55816693604	j	1	1	0
0	2	1	0.6	0.6	0.8	0	0	0	1	4	89	480.455238372087	k	2	1	1
0	2	1	0.2	0.6	0.6	0	0	0	0	4	90	383.779920637608	j	1	0	0
0	1	0	0.6	0.8	0.8	0	3	1	1	4	91	730.55562749505	j	1	0	0
1	2	1	0	1	0.6	1	1	1	0	4	92	977.850103750825	j	1	0	1
1	1	0.4	0.4	0	1	0	1	1	1	4	93	926.497923210263	j	1	1	0
1	1	0.4	0.4	0.4	1	1	0	0	1	4	94	761.065339669585	j	1	0	0
1	1	0.4	0	0.4	0.4	1	0	0	0	4	95	574.17856156826	j	1	1	0
1	1	0.2	0.8	0	0.4	1	0	0	0	4	96	941.745767369866	j	1	0	0
0	2	0.4	1	1	0	1	4	1	1	4	97	563.589330762625	j	1	1	0
1	2	0.4	-0	1	0.2	1	0	0	1	4	98	951.906803995371	j	1	1	1
0	1	0	1	0.2	0	1	2	1	0	4	99	450.773162767291	k	2	1	0
0	1	0.2	0.4	1	-0	0	0	0	1	4	100	945.628946647048	k	2	0	NaN
1	2	0.8	0.2	-0	1	1	2	1	0	4	101	566.251847893	j	1	1	1
1	2	0.2	0.6	0.2	0.2	0	0	0	1	4	102	597.291115671396	k	2	0	0
0	2	0	0.8	0.2	0.2	0	0	0	0	4	103	495.414862409234	j	1	0	1
0	1	0.8	0.2	0.2	1	0	3	1	0	4	104	NaN	NaN	NaN	NaN	0
1	2	0.6	0.6	0	0.2	0	1	1	0	4	105	675.04264973104	j	1	1	0
0	1	0.6	0	NaN	0	0	1	1	1	4	106	615.685041993856	j	1	1	0
0	1	0.8	0.2	0	0.6	0	0	0	1	4	107	561.886610463262	k	2	0	0
1	1	0.6	0.4	0.8	0	0	0	0	0	4	108	847.285935655236	j	1	0	1
1	2	0.2	1	0.6	NaN	0	3	1	1	4	109	647.247532382607	j	1	0	0
1	2	1	1	0.2	0.6	0	0	0	1	4	110	405.103145167232	k	2	1	0
1	2	0.2	1	1	0.2	1	0	0	0	4	111	416.709242388606	j	1	0	0
1	1	0.6	-0	0.6	0.8	1	3	1	0	4	112	627.6192702353	j	1	1	0
0	1	0.6	0.4	-0	0.2	1	0	0	1	4	113	512.630235403776	j	1	0	0
1	1	0.4	0.6	0.6	-0	0	0	0	0	4	114	585.004845634103	j	1	0	1
0	1	1	0.2	0.4	0.6	1	0	0	0	4	115	476.665861904621	j	1	0	1
1	2	0.4	0.6	0.2	1	1	4	1	0	4	116	536.204161122441	k	2	1	0
1	2	0.6	0.2	0.6	1	0	0	0	1	4	117	621.087774634361	j	1	1	1
1	1	0.6	0.6	1	0.4	0	2	1	0	4	118	426.568364724517	k	2	1	0
0	1	0.6	0.8	0.6	0.2	1	0	0	1	4	119	480.772374197841	j	1	0	0
1	1	0.4	0.4	0.6	0.6	0	0	0	0	4	120	459.028201177716	k	2	1	0
0	2	0	0.2	0.2	0.6	1	3	1	0	4	121	409.266920760274	j	1	1	1
0	1	0.2	0.4	0.4	0.6	1	1	1	0	4	122	653.570968657732	k	2	1	1
1	2	-0	0.4	0.2	0.4	0	1	1	1	4	123	501.465301960707	j	1	0	0
0	2	0.4	0.4	-0	0.4	1	0	0	1	4	124	897.04305678606	j	1	1	0
1	2	0.2	0.4	0.4	-0	0	0	0	0	4	125	870.186127722263	k	2	1	1
1	1	0.6	0.6	0.4	0.2	0	3	1	1	4	126	841.41756221652	j	1	0	0
0	1	0.4	-0	0.6	0.4	1	0	0	1	4	127	504.54580411315	j	1	0	1
0	1	0.2	0.6	0.4	0.6	0	0	0	0	4	128	575.310884043574	k	2	0	1
0	1	0.2	0.4	0.2	0.4	0	0	0	0	4	129	668.446091935039	k	2	0	1
0	2	-0	0	0.4	0.4	1	4	1	0	4	130	552.376888692379	j	1	0	0
1	1	0	0.4	0.2	0.2	0	1	1	0	4	131	596.971930935979	j	1	0	1
0	2	0.2	0.4	-0	0.2	0	1	1	1	4	132	769.78755928576	k	2	0	1
0	2	0.4	0.4	0.2	0	1	0	0	1	4	133	520.495804026723	j	1	1	0
0	1	0	0.6	0	-0	1	2	1	1	4	134	556.598180904984	j	1	1	0
1	2	0.2	0.4	0.4	0.2	0	1	1	0	4	135	714.811401441693	j	1	0	0
0	2	0.4	0.8	0.2	0.6	0	0	0	1	4	136	578.710781410336	k	2	0	1
0	1	0	0.6	0.6	0.4	0	2	1	1	4	137	569.867547601461	k	2	1	1
0	2	0.4	0	0.4	0.2	0	1	1	0	4	138	487.704331055284	j	1	1	0
0	2	0.8	0.2	0	0.6	1	0	0	1	4	139	725.240740925074	j	1	1	1
1	1	0	1	0.6	0.4	0	2	1	1	4	140	896.47581987083	j	1	1	1
1	2	0.4	-0	0.2	0	0	1	1	0	4	141	509.217524901032	k	2	0	0
1	2	0.6	0.6	0.4	1	0	0	0	1	4	142	516.869736835361	j	1	1	0
1	1	0.2	0.8	1	0.2	1	2	1	1	4	143	783.86652469635	k	2	1	1
1	2	0.2	-0	0.6	0.4	1	1	1	0	4	144	487.162102013826	j	1	1	1
1	2	0.6	0.2	-0	0.8	1	0	0	1	4	145	540.237132459879	k	2	0	0
1	2	0.2	0	0.6	-0	0	0	0	0	4	146	546.125015243888	j	1	0	1
0	2	0.2	0.4	0.2	0.6	1	0	0	0	4	147	437.606874853373	j	1	1	0
0	1	0.6	1	0.8	0.6	1	4	1	1	4	148	417.103260755539	k	2	1	1
0	2	0.2	1	0.4	0.2	1	1	1	0	4	149	695.263123139739	k	2	0	0
1	1	1	-0	1	0.4	0	1	1	1	4	150	692.053550854325	j	1	1	1
1	1	0	0.6	-0	0.2	1	0	0	1	4	151	562.445048242807	k	2	0	0
0	2	0	0.4	0.2	1	1	2	1	1	4	152	622.299930080771	j	1	0	1
1	1	0.8	0.4	0	-0	1	1	1	0	4	153	514.093555510044	j	1	0	1
1	1	0.2	0.4	0.8	0	1	0	0	1	4	154	665.313839912415	j	1	1	0
1	2	0	0.6	0	0	1	2	1	1	4	155	557.410731911659	k	2	0	1
1	1	0.8	0.6	0.4	0.8	1	1	1	0	4	156	546.220015734434	j	1	0	0
0	1	-0	0.6	0.8	0	1	0	0	1	4	157	704.832682386041	k	2	1	0
1	2	0.4	0.4	0	0.4	1	2	1	1	4	158	658.359182998538	j	1	0	1
1	2	0.6	0.6	0.4	0.6	0	0	0	1	4	159	570.939058437943	k	2	1	0
1	1	0.4	0.2	0.6	0.8	0	2	1	0	4	160	559.24548022449	j	1	0	0
1	1	0	0.4	0.4	0.6	1	0	0	1	4	161	657.422078773379	k	2	0	1
0	2	0.2	0.4	0.6	0.4	1	2	1	0	4	162	774.901524186134	j	1	1	NaN
1	1	0.4	0	0	0.4	1	1	1	0	4	163	691.871536895633	k	2	1	0
1	2	0.2	0.8	0.4	0	1	1	1	1	4	164	NaN	NaN	NaN	NaN	0
0	2	0.4	0.6	NaN	0	1	0	0	1	4	165	631.60428032279	j	1	1	0
1	1	0.6	0	0	0.4	1	2	1	1	4	166	859.121035784483	k	2	0	0
1	2	0.4	0.8	0.6	NaN	1	1	1	0	4	167	794.035131111741	j	1	0	0
1	2	0.8	1	0.4	0.6	0	0	0	1	4	168	652.718160301447	k	2	0	1
0	1	0.6	0	0.6	0.6	1	2	1	1	4	169	611.237162724137	j	1	0	1
1	2	0.8	0.6	0.8	0.4	0	1	1	0	4	170	664.969796314836	k	2	0	1
0	1	0.2	0	0.6	0.8	0	1	1	1	4	171	853.526901453733	k	2	1	0
1	2	0	1	0.8	0.6	1	1	1	1	4	172	763.731501996517	j	1	1	0
1	1	0	0	0	0.8	0	1	1	1	4	173	569.180391728878	k	2	0	0
1	2	1	0.4	1	0	1	1	1	1	4	174	443.870538845658	j	1	1	1
1	2	0.6	0.4	0.4	0	1	0	0	1	4	175	815.387785434723	k	2	0	NaN
0	2	1	0.6	0.6	0.4	1	0	0	0	4	176	NaN	NaN	NaN	NaN	NaN
1	2	0.2	0.2	NaN	0.6	0	0	0	0	4	177	NaN	NaN	NaN	NaN	0
1	1	0.8	0.8	0	1	1	4	1	1	4	178	576.395032927394	j	1	0	1
1	1	0.8	0	0.8	NaN	1	0	0	1	4	179	468.938525766134	k	2	1	0
1	2	0.4	0.4	NaN	NaN	1	2	1	0	4	180	457.287227734923	j	1	0	0
1	1	0.2	0.2	0	0.8	1	1	1	0	4	181	625.433759763837	j	1	1	1
1	2	0.2	0.2	0.4	0	0	1	1	1	4	182	744.853470474482	j	1	0	1
0	2	0.8	1	0.2	0.2	0	0	0	1	4	183	724.691348150373	j	1	1	0
1	2	0.8	0.4	1	0.2	1	0	0	0	4	184	467.284984886646	j	1	0	0
0	2	0.8	0.2	0.8	1	1	0	0	0	4	185	519.468123093247	j	1	1	0
1	2	1	0.8	0.2	0.8	1	0	0	0	4	186	651.837181299925	j	1	1	1
0	1	0	0.4	0.2	0.4	1	5	1	1	4	187	600.010719150305	j	1	1	1
1	2	0.8	0.4	0.8	0.2	0	1	1	0	4	188	615.089364349842	j	1	0	0
0	2	0.4	0	0.8	0.4	1	0	0	1	4	189	490.494711324573	j	1	0	1
1	1	0.2	0.8	0.4	0.8	0	2	1	1	4	190	690.038196742535	j	1	0	0
0	1	0.2	0.4	0.2	0.4	1	0	0	1	4	191	413.940524682403	k	2	1	0
1	2	0	0.2	0.4	0.8	0	2	1	0	4	192	793.012846261263	j	1	1	0
0	1	0.4	0.6	0.4	0.2	0	1	1	0	4	193	558.388151228428	j	1	1	1
1	2	0.6	0.4	0.2	0.4	0	1	1	1	4	194	474.202690646052	k	2	1	1
1	1	0.2	1	0.6	0.2	0	1	1	1	4	195	528.922343626618	j	1	1	1
1	2	0.4	0.4	0.4	0.6	0	1	1	1	4	196	575.043730437756	j	1	1	1
1	1	0.4	0.4	1	0.4	1	1	1	1	4	197	690.188640728593	j	1	1	1
1	1	0.4	0.4	0.4	0.4	1	0	0	1	4	198	558.566613122821	j	1	0	0
0	2	0.4	-0	0.4	1	0	2	1	1	4	199	575.053023174405	j	1	0	0
0	2	0.6	0.4	0.4	0.4	1	0	0	1	4	200	713.728768751025	j	1	1	0
0	1	0	0.6	0.4	0.4	1	2	1	0	4	201	541.87485948205	k	2	0	1
1	1	0.8	0.6	0	0.4	0	0	0	1	4	202	835.177265107632	k	2	1	0
0	1	1	0.6	0.6	0	1	0	0	0	4	203	592.294491827488	j	1	1	1
0	1	0.2	0	0.6	0.6	0	0	0	0	4	204	549.041766673326	j	1	1	1
0	1	1	0.6	0	0.6	0	0	0	0	4	205	698.420939967036	k	2	0	0
0	2	0.2	0.2	0.4	0.4	0	5	1	0	4	206	782.571740448475	j	1	0	0
0	2	0	0.4	0.2	1	0	0	0	1	4	207	627.549273893237	k	2	0	1
0	2	0.4	-0	0	0.2	0	0	0	0	4	208	514.140764251351	j	1	0	1
0	1	0.6	0.6	1	0	0	3	1	0	4	209	750.772621482611	j	1	0	1
1	1	0.6	0	0.6	0.4	0	0	0	1	4	210	716.504478827119	j	1	1	0
0	1	1	0.4	0	0.6	1	0	0	0	4	211	529.951699078083	k	2	0	0
0	2	1	0	0.4	0	1	3	1	0	4	212	628.569815307856	j	1	0	NaN
0	1	0.4	-0	1	0	0	1	1	0	4	213	593.328924849629	k	2	0	1
1	2	0.6	0	1	1	1	1	1	1	4	214	NaN	NaN	NaN	NaN	0
1	2	0.2	0	NaN	0.4	0	0	0	1	4	215	413.056841120124	j	1	0	0
0	1	0.2	0.4	0.4	1	0	2	1	1	4	216	866.092909127474	k	2	1	0
1	2	0.4	0.2	0.2	NaN	0	1	1	0	4	217	489.022737368941	j	1	1	0
0	2	0.6	0.4	0.2	0.4	0	0	0	1	4	218	795.204896479845	k	2	1	1
1	1	0.2	0.2	0.4	0.2	0	2	1	1	4	219	618.757700547576	j	1	1	1
1	1	0.6	0.4	0.2	0.4	1	0	0	1	4	220	612.891105934978	k	2	1	1
1	2	0.6	-0	0.4	0.2	0	2	1	0	4	221	501.424577087164	j	1	0	0
0	1	0.4	0.6	0.4	0.2	1	1	1	0	4	222	442.292053252459	k	2	0	0
0	2	0	0.6	0.6	0.4	1	1	1	1	4	223	382.510421797633	j	1	1	0
0	2	0.4	0.6	0.6	0.4	1	0	0	1	4	224	755.370248109102	j	1	1	1
1	2	0.4	0	0.6	0.6	1	0	0	0	4	225	533.332956954837	j	1	1	1
0	1	0.4	1	0.4	0.6	0	3	1	1	4	226	779.292471706867	k	2	1	0
0	1	0.4	0.6	1	0	0	0	0	1	4	227	474.694592878222	j	1	1	1
0	1	0.2	0.8	0.6	1	0	0	0	0	4	228	655.112897977233	j	1	1	1
1	1	0.4	0.6	0.8	0.6	0	0	0	0	4	229	553.759256377816	j	1	1	1
1	1	0.4	1	0.6	0.8	1	0	0	0	4	230	633.280698210001	k	2	1	1
0	2	0	0.8	0	0.6	0	5	1	0	4	231	869.711877778172	k	2	1	1
1	2	0.4	0.6	0.8	1	1	0	0	1	4	232	472.574777901173	j	1	1	1
1	2	-0	0.6	0.6	0.8	1	0	0	0	4	233	522.253405302763	k	2	1	1
0	2	0.8	0.4	0.6	0.6	1	0	0	0	4	234	562.86952085793	k	2	1	1
1	1	0	0.2	1	0.6	1	4	1	0	4	235	744.811145588756	j	1	1	1
1	2	0.4	0.4	0.4	0.6	0	1	1	0	4	236	951.449766755104	j	1	0	0
0	1	0.2	0.4	0.2	0.4	1	1	1	1	4	237	641.77305996418	j	1	1	1
1	1	0.8	0.6	0.4	0.4	0	0	0	1	4	238	737.170774489641	j	1	1	1
1	1	0	0.4	0.6	0.4	1	0	0	0	4	239	700.602019205689	k	2	1	1
0	2	0.6	0.6	0.4	0.2	0	3	1	1	4	240	560.538623481989	j	1	1	0
1	1	0	0.4	0.4	0.6	1	1	1	0	4	241	672.128362581134	j	1	0	0
0	2	0.4	0.4	0.6	0.4	0	1	1	1	4	242	484.573202207685	j	1	1	1
0	1	0	0.6	0	0.6	1	1	1	1	4	243	553.902681916952	k	2	1	0
0	1	0	0.2	0.6	0.4	0	0	0	1	4	244	544.402191415429	j	1	1	1
0	1	0	0.6	0.2	0.6	0	0	0	0	4	245	579.832643270493	k	2	1	1
0	1	0.2	1	0.6	0.2	0	0	0	0	4	246	543.370291590691	j	1	0	0
0	1	0.6	0.8	0.2	0.6	0	0	0	0	4	247	500.080311670899	k	2	1	NaN
1	2	0.8	0.2	0.4	0	0	5	1	1	4	248	680.792015045881	j	1	1	1
1	2	0.6	0	0.2	0.8	0	0	0	1	4	249	712.905479595065	j	1	0	0
0	1	0.2	0.2	0.8	0.2	0	2	1	0	4	250	NaN	NaN	NaN	NaN	0
0	2	1	0.6	0.6	0.2	0	1	1	0	4	251	489.006094634533	j	1	1	0
1	2	0.8	0.4	0.6	NaN	1	0	0	1	4	252	512.481968849897	k	2	1	1
1	1	0.2	0.6	NaN	0.6	0	2	1	1	4	253	701.40727981925	j	1	1	0
0	2	1	0.6	0.4	0.6	0	1	1	0	4	254	713.888609781861	j	1	0	0
0	2	1	0.8	1	0.6	0	0	0	1	4	255	588.104827329516	j	1	0	1
0	2	0.8	0.8	1	1	0	0	0	0	4	256	491.90123565495	j	1	0	1
1	2	1	0.4	0.8	1	1	0	0	0	4	257	646.379748359323	k	2	0	1
0	1	0	0.2	0.6	0.4	1	4	1	1	4	258	754.985237494111	j	1	1	1
0	1	0.4	0.6	0.2	1	0	0	0	1	4	259	401.793494820595	k	2	0	0
0	1	0.2	0.4	0.4	0.2	0	0	0	0	4	260	678.581116721034	j	1	0	1
1	1	0.4	0.2	0.2	0.4	0	0	0	0	4	261	452.426383271813	k	2	1	0
0	2	0.8	0.6	1	0.8	0	4	1	0	4	262	407.347677275538	j	1	0	1
1	2	0.6	0	0.8	0.2	1	0	0	1	4	263	493.666347116232	k	2	0	1
0	2	0.8	0.6	0.6	0.8	1	0	0	0	4	264	403.297958895564	j	1	0	1
0	2	0.8	0.8	0.8	0.6	1	0	0	0	4	265	432.907290756702	j	1	0	NaN
0	1	0.4	0.4	0.2	0.2	1	4	1	0	4	266	638.02726753056	k	2	1	NaN
0	2	0.4	0	0.8	0.8	0	1	1	0	4	267	NaN	NaN	NaN	NaN	0
1	1	0.8	0	0.4	0.8	0	1	1	1	4	268	NaN	NaN	NaN	NaN	0
1	1	0.2	-0	NaN	NaN	1	0	0	1	4	269	516.521967947483	k	2	0	0
1	1	0.2	0.4	0.2	NaN	1	0	0	0	4	270	487.17681132257	j	1	1	0
0	2	0.4	0	NaN	0.4	0	3	1	1	4	271	588.938934728503	j	1	0	0
1	2	0.2	-0	0.4	0.4	0	0	0	1	4	272	385.791927576065	k	2	1	0
0	1	0.6	0	0.4	0.2	1	2	1	0	4	273	742.199972271919	j	1	0	0
0	1	0.6	0	0.6	-0	0	0	0	1	4	274	592.774974182248	k	2	0	1
0	1	0.8	0.4	0.6	0.6	0	0	0	0	4	275	519.09632794559	j	1	1	0
0	1	0.8	0.2	0.4	0.6	0	0	0	0	4	276	582.46780000627	j	1	1	1
0	2	0	0.2	-0	0.4	0	4	1	0	4	277	616.238972172141	k	2	0	0
0	2	-0	0.4	0	0.2	0	0	0	1	4	278	559.577519074082	j	1	0	1
1	2	-0	0.2	-0	0	0	0	0	0	4	279	620.749810710549	j	1	1	0
0	1	1	0.4	0.2	0.4	0	3	1	0	4	280	457.724414765835	j	1	0	0
0	1	0.6	0.4	1	0.2	0	0	0	1	4	281	500.977527350187	j	1	0	1
0	1	1	-0	0.6	1	0	0	0	0	4	282	667.785098776221	j	1	0	1
0	2	0.2	0.2	0.2	-0	0	3	1	0	4	283	729.13827560842	j	1	1	1
0	2	0.6	0.6	0.2	1	1	0	0	1	4	284	655.102178454399	j	1	0	0
1	1	0.6	0.4	1	0.6	0	2	1	0	4	285	906.311936676502	j	1	0	NaN
0	1	0.6	0.8	0.6	0.6	1	0	0	1	4	286	NaN	NaN	NaN	NaN	0
1	2	0.2	0.4	0.6	0.2	0	2	1	0	4	287	669.027164578438	j	1	0	1
0	1	0.4	0.6	NaN	0.6	0	1	1	0	4	288	698.539597913623	j	1	0	0
0	1	1	0.6	0.4	0.2	0	0	0	1	4	289	863.302234560251	k	2	0	1
0	2	-0	0.6	0.2	NaN	0	2	1	1	4	290	780.173972249031	j	1	1	0
1	1	0.4	0.6	1	0.4	0	1	1	0	4	291	583.337949588895	k	2	0	1
1	2	-0	0.8	0.6	1	0	1	1	1	4	292	628.177689388394	j	1	1	1
0	1	1	0.8	0.4	0.6	1	1	1	1	4	293	747.928125783801	j	1	0	1
1	1	1	0.2	1	0.8	0	0	0	1	4	294	736.574951559305	k	2	0	1
1	2	0.4	0.8	0.8	0.4	1	2	1	1	4	295	597.258731722832	j	1	1	1
0	1	0.4	0.4	1	1	1	1	1	0	4	296	528.53230945766	k	2	0	1
1	2	0.4	0.2	0.8	1	0	1	1	1	4	297	592.352392151952	j	1	1	1
1	2	-0	1	0.2	0.4	1	0	0	1	4	298	458.844199776649	k	2	0	0
0	1	0.8	0.6	0.4	0.8	0	2	1	1	4	299	657.459871843457	j	1	0	1
1	1	1	0.4	0.8	-0	0	0	0	1	4	300	525.30256099999	j	1	0	1
1	2	0.2	0.8	-0	0.2	0	2	1	0	4	301	730.075087398291	k	2	0	1
1	1	0.6	0.2	1	0.8	1	1	1	0	4	302	967.325801029801	k	2	0	1
0	2	1	0.8	0.2	1	0	1	1	1	4	303	474.132539704442	j	1	1	0
1	1	0.4	0.6	0.6	0.2	1	1	1	1	4	304	592.843214049935	j	1	0	1
0	2	1	1	0.8	0.6	1	1	1	1	4	305	556.708643212914	k	2	0	0
0	2	0.6	0.8	1	0.4	1	0	0	1	4	306	539.276074618101	k	2	0	1
0	2	0.2	1	0.6	1	1	0	0	0	4	307	440.453957766294	k	2	0	1
0	2	0.2	0.8	0.2	0.6	1	0	0	0	4	308	487.184738740325	j	1	0	1
0	2	0.2	0.6	0.2	0.2	1	0	0	0	4	309	513.957170769572	j	1	0	1
1	1	0.6	0.2	0.4	0.8	1	5	1	1	4	310	671.1161211133	j	1	0	1
0	2	0.4	0.8	0.2	0.2	0	1	1	0	4	311	467.49584004283	j	1	1	0
1	2	0.6	0	0.8	0.6	1	0	0	1	4	312	698.869228363037	j	1	1	1
0	2	0.6	0.4	0	0.8	1	0	0	0	4	313	485.758183524013	j	1	0	0
1	1	0.8	0.6	0.6	0.2	1	3	1	1	4	314	532.744079828262	k	2	0	1
0	1	0.8	0	0.8	0.6	1	0	0	1	4	315	439.054543152452	j	1	1	0
0	2	0.8	0.2	0.6	0	0	2	1	0	4	316	668.540708720684	j	1	1	0
1	1	0.8	0.8	0	0.8	0	1	1	0	4	317	713.653525337577	k	2	0	0
1	1	0.8	0.6	0.8	0.2	1	0	0	1	4	318	695.61848975718	j	1	0	1
0	1	0.6	0.4	0.8	0.8	1	0	0	0	4	319	532.738249748945	j	1	1	0
1	2	0.4	0.2	0.2	0	0	3	1	1	4	320	635.319536551833	j	1	1	1
0	1	0.6	1	0.4	0.8	0	1	1	0	4	321	532.539363950491	k	2	0	0
0	2	0.4	0	0.2	0.4	1	1	1	1	4	322	443.36586818099	j	1	0	0
1	1	0.8	0.8	0.6	0.2	0	1	1	1	4	323	657.922742888331	j	1	0	1
0	2	1	0	0.4	0.6	1	1	1	1	4	324	476.892873644829	j	1	0	1
0	2	0	0.2	1	0.8	1	0	0	1	4	325	498.09468537569	j	1	0	1
1	1	0.8	0.8	0.8	0.4	1	2	1	1	4	326	608.01505856216	j	1	0	1
1	1	0.2	0.4	0.8	0	1	0	0	1	4	327	563.171392306685	k	2	1	0
1	1	0.2	1	0.4	0.8	1	0	0	0	4	328	537.719821557403	j	1	1	1
1	1	0.4	0.8	1	0.4	1	0	0	0	4	329	590.787192806602	k	2	1	1
0	1	1	0.6	0.8	1	1	0	0	0	4	330	580.172449350357	k	2	1	1
1	2	0.6	0.2	0	1	1	5	1	0	4	331	610.449546948075	j	1	1	0
1	2	0	0.4	0.2	0.6	1	0	0	1	4	332	420.263653621078	j	1	0	0
1	1	0.4	0.2	0.6	0.8	0	2	1	0	4	333	826.453903689981	j	1	1	1
0	2	0.8	0	0	0.2	0	1	1	0	4	334	672.669939696789	k	2	0	1
1	2	0.2	0	0.8	0.2	1	0	0	1	4	335	613.761773332953	j	1	0	1
1	2	0.8	0	0.2	0.8	1	0	0	0	4	336	481.991352513433	k	2	0	1
0	2	-0	0.4	0.8	0.2	1	0	0	0	4	337	574.193213135004	j	1	0	1
0	2	1	0.4	-0	0.8	1	0	0	0	4	338	803.271410986781	j	1	1	0
1	1	0.6	0.2	0.2	0	1	5	1	1	4	339	609.043318778276	j	1	1	1
0	2	0.4	0.8	0.4	-0	1	1	1	0	4	340	460.116980597377	j	1	1	1
0	2	0.8	0.4	0.8	0.2	0	0	0	1	4	341	380.580520257354	j	1	1	1
0	2	0.8	0.6	0.4	0.8	1	0	0	0	4	342	512.918394058943	j	1	1	1
1	1	0.2	0.2	0.2	0.4	1	3	1	1	4	343	774.387514218688	j	1	0	0
1	1	0.6	0	0.2	0.6	1	0	0	1	4	344	507.945608347654	k	2	1	NaN
1	2	0	1	0.6	0.4	0	2	1	0	4	345	829.443968832493	j	1	1	1
1	2	0.4	1	1	0	0	0	0	1	4	346	522.427160292864	j	1	1	1
1	1	0.2	0.4	0	0.2	1	2	1	0	4	347	NaN	NaN	NaN	NaN	0
0	1	0.8	0.4	NaN	1	1	0	0	1	4	348	621.129177510738	j	1	0	0
1	1	0.4	0.8	0.8	NaN	0	0	0	0	4	349	819.566426798701	j	1	1	0
0	1	0	0.8	0.8	0.8	1	0	0	0	4	350	553.5405613482	k	2	0	0
0	1	0.4	0.8	0	0.8	0	0	0	0	4	351	734.28014293313	j	1	1	0
1	2	0.8	-0	1	1	1	5	1	0	4	352	600.808864459395	j	1	0	0
0	2	0.6	0.6	0.8	0.8	1	0	0	1	4	353	694.123489782214	j	1	0	1
0	2	0.2	0.4	0.6	0.8	0	0	0	0	4	354	586.136972531676	j	1	0	NaN
1	1	0.6	0.2	0.8	0	0	3	1	0	4	355	643.090423196554	j	1	1	1
1	1	0.4	0.6	0.2	0.2	1	0	0	1	4	356	391.910662874579	k	2	0	0
0	1	0.2	-0	0.4	0.2	1	0	0	0	4	357	363.822935149074	j	1	1	0
1	2	0.4	0.2	0.2	0.6	0	3	1	0	4	358	NaN	NaN	NaN	NaN	0
0	1	0.2	0.8	-0	0.4	0	1	1	0	4	359	484.286451712251	j	1	0	0
0	1	0.4	0	0.2	NaN	0	0	0	1	4	360	595.032198354602	k	2	1	0
1	1	0.6	0.8	NaN	NaN	NaN	NaN	NaN	NaN	5	1	455.555295018712	k	2	1	NaN
1	2	0.2	0.4	NaN	NaN	NaN	1	1	NaN	5	2	572.591286996612	j	1	0	NaN
0	1	0.2	0.2	0.8	NaN	1	1	1	NaN	5	3	417.861880996497	j	1	1	1
0	2	0.4	1	0.2	0.8	1	1	1	1	5	4	520.023432007292	k	2	0	1
1	2	-0	1	0.4	0.2	0	0	0	1	5	5	541.760580003029	j	1	0	1
0	2	0.6	0.2	-0	0.4	1	0	0	0	5	6	592.675466003129	j	1	0	1
1	1	0	0.8	0.2	0.2	0	3	1	1	5	7	501.831600005971	j	1	1	1
1	1	0	1	0.8	0.6	1	0	0	1	5	8	490.578680997714	j	1	1	1
1	1	0.6	1	1	0.8	1	0	0	0	5	9	472.237793001113	k	2	1	1
0	2	0.6	1	0.6	-0	1	3	1	0	5	10	366.440009995131	k	2	1	0
0	1	0.6	0.2	1	1	1	1	1	0	5	11	351.975722995121	j	1	1	1
0	2	0	0.8	1	1	1	1	1	1	5	12	470.80833997461	k	2	1	1
0	1	0	0.8	0.2	1	0	1	1	1	5	13	468.248978984775	j	1	1	1
0	2	0	1	0.8	0.2	0	1	1	1	5	14	366.395921009826	k	2	1	1
1	2	-0	0.8	1	0.8	0	0	0	1	5	15	541.902506985934	k	2	1	1
1	1	0.2	0.4	0.8	0.8	0	2	1	1	5	16	427.188599016517	k	2	1	1
0	2	0	0.8	0.8	1	1	1	1	0	5	17	390.844178997213	k	2	1	1
1	1	-0	0.8	0.4	0.8	1	1	1	1	5	18	547.246367001208	k	2	1	1
1	2	0.4	1	0.8	0.4	1	1	1	1	5	19	360.951792012202	k	2	1	1
1	2	0.6	0.4	1	0.8	1	0	0	1	5	20	469.72556898254	k	2	1	1
1	1	0.2	0.2	0.8	0.8	1	2	1	1	5	21	488.392140017822	k	2	1	1
1	2	0.4	0.6	0.4	1	0	1	1	0	5	22	686.839537986089	k	2	0	0
0	1	0	0.6	0.2	0.4	1	1	1	1	5	23	404.116352001438	k	2	0	0
0	2	0.8	0.2	0.4	0.2	0	1	1	1	5	24	752.119944023434	k	2	1	0
0	1	0.2	0.8	0	0.4	0	1	1	1	5	25	397.027003986295	j	1	1	0
0	1	0.4	0.8	0.8	0.2	0	0	0	1	5	26	528.412204002962	j	1	1	1
1	2	0.6	1	0.2	0	0	2	1	1	5	27	486.673806997715	k	2	1	1
1	1	0.4	0.4	0.8	0.8	0	1	1	0	5	28	522.288456006208	j	1	1	1
0	2	0	0.4	1	0.8	1	1	1	1	5	29	519.873457989888	j	1	1	1
1	1	0	0.6	0.4	1	1	1	1	1	5	30	443.833803990856	j	1	1	1
1	1	0.6	0.6	0.6	0.4	1	0	0	1	5	31	448.953507002443	j	1	1	1
0	2	0.6	0.4	0.4	0.4	1	2	1	1	5	32	463.515012001153	j	1	1	1
1	2	0.6	0.8	0.4	0.6	1	0	0	1	5	33	322.238518012455	k	2	1	1
0	1	1	0	0.6	0.6	1	2	1	0	5	34	458.279485988896	j	1	1	1
0	2	0.4	0.6	0.8	0.4	0	1	1	0	5	35	742.038108990528	k	2	0	0
0	1	0.4	0.2	0	0.8	0	1	1	1	5	36	400.641574990004	j	1	0	0
1	1	1	0.4	0.4	0.4	0	0	0	1	5	37	511.257540987572	j	1	0	1
0	1	0.8	0.4	1	0.4	1	0	0	0	5	38	619.505606009625	j	1	0	1
1	2	0.2	0.2	0.4	0	0	3	1	1	5	39	810.019334981916	k	2	0	1
0	1	0.8	0.2	0.8	1	0	1	1	0	5	40	622.01288700453	k	2	1	0
1	1	1	0.6	0.2	0.2	0	0	0	1	5	41	586.049664998427	j	1	1	1
1	2	0.4	0.4	0.2	0.8	1	2	1	1	5	42	848.397473018849	k	2	1	0
1	1	0.2	0	0.6	0.2	1	1	1	0	5	43	436.578610009747	k	2	0	0
1	1	0.8	0.2	0.2	0.4	1	0	0	1	5	44	578.012484998908	j	1	0	1
0	2	0.8	0.4	0.4	0.6	0	2	1	1	5	45	614.448002015706	j	1	1	1
1	1	0.4	0.4	0.8	0.2	1	1	1	0	5	46	650.133091985481	k	2	0	1
0	2	0.4	0.2	0.4	0.8	0	1	1	1	5	47	637.94398601749	j	1	1	1
0	1	0	0.2	0.4	0.4	1	1	1	1	5	48	804.012343025533	j	1	1	0
1	1	0.8	0.6	0.2	0.2	0	0	0	1	5	49	520.797733974177	k	2	0	0
1	2	0.4	0.2	0.2	0.4	1	2	1	1	5	50	526.156918989727	j	1	0	0
0	2	0.4	0	0.4	0.8	1	0	0	1	5	51	612.09960601991	k	2	1	0
0	2	0.8	0.6	0	0.4	1	0	0	0	5	52	864.553855994018	k	2	0	0
0	1	0.4	0.8	0.8	0.2	1	3	1	0	5	53	706.733667990193	j	1	0	1
1	1	0	0.6	0.4	0.8	0	0	0	1	5	54	489.34530801489	k	2	0	NaN
0	1	0.4	0.4	0	0.4	1	0	0	0	5	55	NaN	NaN	NaN	NaN	0
0	1	-0	1	NaN	0	0	0	0	0	5	56	603.387831011787	k	2	1	0
1	2	0.6	0.4	0.8	0	1	4	1	0	5	57	512.051889003487	k	2	1	0
1	1	0.6	0.6	1	NaN	0	1	1	0	5	58	692.837242997484	j	1	1	1
0	2	0	1	0.4	1	0	1	1	1	5	59	658.336755004711	j	1	0	0
1	2	0.6	1	0	0.6	1	0	0	1	5	60	783.739959006198	j	1	1	0
1	2	0.6	0.4	1	0	0	0	0	0	5	61	490.083713986678	k	2	1	1
1	1	-0	0.6	0.6	0.4	1	3	1	1	5	62	878.110258025117	k	2	0	0
1	2	0.2	0.2	0.4	1	1	1	1	0	5	63	644.054452015553	j	1	0	0
0	2	0.4	1	0.2	-0	0	0	0	1	5	64	602.378226991277	j	1	1	0
0	1	0.2	0.4	-0	0.4	1	2	1	1	5	65	462.967147002928	j	1	1	0
1	1	0.2	0.8	0.4	1	0	0	0	1	5	66	508.362438995391	k	2	1	1
1	1	0	0	0.8	0.4	1	0	0	0	5	67	480.460779013811	k	2	1	1
1	1	0.4	0.4	0	0.8	1	0	0	0	5	68	547.805925016291	j	1	1	1
0	2	0.6	0.4	1	0.2	0	4	1	0	5	69	603.041430993471	k	2	1	1
0	1	0.6	0.2	0.4	0	1	1	1	0	5	70	509.591404988896	j	1	0	0
0	1	0.6	0.8	0.6	0.4	0	0	0	1	5	71	428.454768989468	k	2	0	1
1	2	0.2	0	0.4	0.4	1	2	1	1	5	72	592.979134991765	j	1	1	1
0	1	0.8	-0	0.6	0.6	0	1	1	0	5	73	669.56688000937	k	2	0	1
1	1	0.6	-0	0.8	0	0	0	0	1	5	74	450.939253991237	j	1	1	0
0	2	0.6	0.4	0	0.6	1	2	1	1	5	75	677.874789980706	k	2	1	1
1	1	0.4	0	-0	0.8	1	1	1	0	5	76	585.923820006428	k	2	0	0
1	1	0.6	0.6	0.4	0.4	1	0	0	1	5	77	608.325200009858	j	1	0	1
0	1	0.8	0	0.6	0.4	1	0	0	0	5	78	542.854307015659	k	2	0	1
1	1	0.6	0	0.8	0.6	0	0	0	0	5	79	553.139452007599	j	1	0	1
0	1	0.4	0	0.6	0.8	1	0	0	0	5	80	365.973095991649	k	2	0	1
0	2	0.4	0.2	0.4	-0	0	5	1	1	5	81	781.267568003386	j	1	0	0
0	1	0.6	0.2	0.4	0.6	0	1	1	0	5	82	449.279508990003	k	2	0	1
1	2	0.4	0.2	0.4	0.4	1	1	1	1	5	83	581.850963004399	j	1	0	1
0	1	0.8	1	0.6	0.4	0	1	1	1	5	84	465.015050023794	k	2	0	1
0	2	0.2	0	0.4	0.6	1	1	1	1	5	85	621.872143994551	j	1	1	0
0	2	1	-0	0	0.8	1	0	0	1	5	86	387.349063996226	k	2	0	0
1	1	0	0.4	0.8	0.4	0	2	1	1	5	87	449.147445004201	k	2	0	1
1	1	1	0.6	0	1	1	0	0	1	5	88	524.278230004711	k	2	0	1
1	1	1	0.6	1	0	1	0	0	0	5	89	554.16317700292	j	1	1	0
0	2	1	0	1	0	0	3	1	0	5	90	775.501194002572	k	2	0	1
1	1	0.4	0.2	0.6	1	1	1	1	0	5	91	352.409787999932	k	2	0	0
0	2	1	-0	1	0.6	0	1	1	1	5	92	518.800821009791	j	1	1	0
1	2	0.8	0.2	-0	0.4	0	0	0	1	5	93	466.638871992473	k	2	1	1
0	1	0.8	0	0.4	1	1	2	1	1	5	94	662.914836022537	j	1	0	1
1	2	0.6	0	0.2	-0	1	1	1	0	5	95	444.674962986028	k	2	0	0
1	1	0.4	0.6	0.8	0.2	0	1	1	1	5	96	625.141906988574	j	1	0	1
0	1	0.4	0.8	0.4	0.6	1	0	0	1	5	97	422.471010999288	k	2	1	0
1	2	0.4	0	0.6	0.8	1	2	1	1	5	98	619.557728001382	k	2	0	1
1	2	0.2	0.6	0.4	0.8	1	0	0	1	5	99	454.7752669896	j	1	1	0
1	1	0.4	0.6	0.8	0.4	0	2	1	0	5	100	508.133492985507	k	2	1	1
0	1	0.8	-0	0.6	0.6	1	0	0	1	5	101	728.132935008034	j	1	0	0
0	2	0.4	0.2	0.6	0.4	0	2	1	0	5	102	559.235307009658	k	2	1	1
0	2	0.4	0.4	0.2	0.8	1	0	0	1	5	103	586.632389982697	k	2	1	1
1	1	0.8	0.6	0.8	0.6	0	2	1	0	5	104	472.117072989931	j	1	0	1
0	1	0.8	0.4	0.8	0.4	1	0	0	1	5	105	539.981304988032	k	2	0	1
0	2	0.6	0	0.4	0.2	0	2	1	0	5	106	608.863119996386	j	1	0	0
0	2	0.6	0	0.6	0.8	0	0	0	1	5	107	520.581925025908	k	2	1	0
0	1	0.6	0.8	0.8	0.8	0	2	1	0	5	108	620.571564999409	j	1	0	1
0	1	0.4	1	0.6	0	0	0	0	1	5	109	520.40535301785	j	1	0	1
1	2	1	0.2	0	0.6	0	2	1	0	5	110	454.546663007932	j	1	0	0
0	2	0.4	0.4	1	0.4	1	0	0	1	5	111	681.157787010306	k	2	0	1
1	1	0.2	0.4	0.4	0.6	0	2	1	0	5	112	599.949677009135	j	1	0	1
1	2	0.6	0.2	0.4	1	1	1	1	0	5	113	555.649065994658	j	1	0	1
0	2	0.4	0.6	0.6	0.2	1	0	0	1	5	114	792.780519986991	k	2	0	1
0	2	1	0	0.4	0.6	1	0	0	0	5	115	622.372280980926	k	2	0	1
1	2	0.4	-0	1	0.4	0	0	0	0	5	116	418.895589013118	j	1	0	1
0	2	0.8	0	0.4	1	1	0	0	0	5	117	543.890545988688	k	2	0	1
1	1	0.4	0.8	0.2	0.4	1	5	1	1	5	118	675.737148005283	j	1	0	1
1	1	0.2	1	0.4	0.8	1	0	0	1	5	119	601.062995992834	j	1	1	0
0	2	0.4	0.4	0.8	0.4	0	2	1	0	5	120	831.210860022111	k	2	0	1
1	1	-0	0.2	1	0.4	1	1	1	0	5	121	426.599450991489	j	1	1	1
0	1	0.2	0.8	0.2	0.4	1	0	0	1	5	122	702.908898005262	j	1	1	1
1	2	0	0	0.4	1	1	2	1	1	5	123	627.724657009821	k	2	0	1
0	1	0.6	0.4	0.8	0.2	0	1	1	0	5	124	817.853972985176	j	1	0	0
0	2	0.4	0.4	0	0.8	0	1	1	1	5	125	365.048770996509	k	2	0	1
1	1	0.2	0.8	0.6	0	0	1	1	1	5	126	729.73446600372	j	1	0	1
1	1	0.4	0.2	0.2	0.4	1	0	0	1	5	127	839.287431008415	j	1	1	0
0	2	-0	0.6	0.4	0.6	1	2	1	1	5	128	532.898801990086	j	1	0	1
1	1	-0	0.4	0.2	0.2	1	1	1	0	5	129	417.206426005578	k	2	0	0
1	1	0	0.2	-0	-0	1	0	0	1	5	130	535.047735989792	j	1	1	0
1	2	-0	0.4	-0	0.2	0	2	1	1	5	131	603.012940002372	j	1	0	1
1	2	0.4	0.6	-0	0.2	0	0	0	1	5	132	512.072031007847	j	1	0	1
1	2	0.8	0.4	0.4	-0	0	0	0	0	5	133	629.755536996527	j	1	1	0
1	2	0.2	0.6	0.4	0.4	1	0	0	0	5	134	489.209363993723	j	1	0	0
0	1	0.2	0.8	0.2	-0	1	4	1	0	5	135	798.404687986476	j	1	0	0
0	1	0.4	1	0.2	0.2	0	0	0	1	5	136	435.153881000588	j	1	1	0
1	1	0.2	0.6	1	0.2	0	0	0	0	5	137	471.364619996166	k	2	1	1
0	1	0.2	0	0.6	1	1	0	0	0	5	138	509.345172991743	k	2	1	1
0	2	1	0.4	0.2	0.4	1	4	1	0	5	139	648.87799200369	k	2	1	0
1	2	0.2	0.8	0.4	0	1	0	0	1	5	140	711.90123699489	j	1	1	1
0	2	0.8	-0	0.8	0.4	1	0	0	0	5	141	483.57505700551	k	2	1	1
0	2	1	0.6	-0	0.8	0	0	0	0	5	142	465.637580986368	k	2	1	1
1	1	0.2	0.2	0	0.6	0	4	1	0	5	143	420.792590011843	j	1	1	1
0	1	0.6	-0	0.2	0.6	1	0	0	1	5	144	467.860864009708	k	2	1	1
0	1	1	0.2	-0	0.2	0	0	0	0	5	145	927.206741995178	j	1	1	1
1	2	1	0.2	0.6	-0	0	3	1	0	5	146	705.766454018885	j	1	1	1
0	2	0.6	0.6	0.2	0.2	1	0	0	1	5	147	384.036843985086	k	2	0	0
0	2	0.8	1	0.6	0.2	1	0	0	0	5	148	444.246405008016	k	2	0	1
1	1	0.6	1	0.2	-0	0	3	1	0	5	149	385.377219005022	k	2	0	0
0	2	1	0.2	0.8	0.6	1	1	1	0	5	150	559.832865983481	k	2	0	1
0	2	0	0.4	1	0.6	1	0	0	1	5	151	468.965798005229	k	2	0	1
0	2	0.6	0.6	0	1	0	0	0	0	5	152	537.30770299444	j	1	0	1
0	1	0.8	0.2	0.6	0.8	1	3	1	1	5	153	495.197589014424	k	2	0	1
1	2	0.6	0.4	0.6	0	0	1	1	0	5	154	569.771200011019	k	2	0	1
0	1	0.6	0.4	0.8	0.6	0	1	1	1	5	155	528.890748013509	k	2	0	1
1	2	1	0.6	0.6	0.8	1	1	1	1	5	156	467.884978017537	j	1	0	1
0	2	0.2	0.6	1	0.6	0	0	0	1	5	157	375.597553007537	k	2	0	1
0	1	0.8	0.4	0.6	0.6	0	2	1	1	5	158	382.524979009759	k	2	0	1
0	2	1	0.6	0.2	1	1	1	1	0	5	159	602.133583975956	j	1	0	1
1	2	0.4	0.6	1	0.8	0	0	0	1	5	160	528.344083984848	j	1	0	1
0	1	0	0.4	0.8	0.2	0	2	1	1	5	161	458.915717987111	j	1	0	1
1	2	0.6	0.6	0.4	1	0	1	1	0	5	162	552.513157017529	k	2	1	0
1	2	0.4	0.4	0.6	0	1	0	0	1	5	163	486.162949004211	j	1	0	0
0	2	0.4	0.8	0.4	0.6	0	0	0	0	5	164	515.689571999246	k	2	0	1
0	2	0.6	0.4	0.4	0.4	0	0	0	0	5	165	584.094204008579	j	1	1	0
1	2	0.6	0.4	0.4	0.4	0	0	0	0	5	166	412.156935984967	k	2	1	1
0	1	-0	0.6	0	0.4	0	5	1	1	5	167	544.497468014015	j	1	1	0
0	1	0.6	0.8	0.6	0.4	0	0	0	1	5	168	453.24303698726	j	1	0	0
0	2	0.4	0	0.4	0.4	0	2	1	0	5	169	523.357184021734	k	2	0	0
1	1	0.6	0.6	0.6	0.6	0	1	1	0	5	170	496.298007987207	k	2	0	1
0	2	-0	0.6	0.4	0.6	0	1	1	1	5	171	405.583439976908	k	2	1	0
1	1	0	1	0.6	0.4	1	1	1	1	5	172	656.172210001387	j	1	0	1
0	1	0	0.4	0	0.6	1	0	0	1	5	173	598.527666996233	k	2	1	0
1	2	0.6	0.4	0.6	0.6	0	2	1	1	5	174	481.84649500763	k	2	1	1
0	1	0.2	0.4	0.4	0	0	1	1	0	5	175	342.005631013308	j	1	0	0
0	1	0.8	0.4	0.2	0.4	0	0	0	1	5	176	454.280731006293	k	2	1	0
0	1	0.2	0	0.4	0.2	0	0	0	0	5	177	376.561864977702	k	2	1	1
0	1	0.8	0.8	0	0.4	0	0	0	0	5	178	423.449469002662	j	1	0	0
1	2	0.6	0.2	0.4	0.4	1	4	1	1	5	179	545.350238971878	j	1	0	0
0	1	0.2	0.4	0.8	0	0	1	1	0	5	180	591.211289982311	k	2	0	1
1	2	0.4	0.2	0.6	0.8	1	1	1	1	5	181	445.414168003481	k	2	1	0
1	2	0	0.4	0.2	0.2	0	0	0	1	5	182	787.902660988038	j	1	0	0
0	2	0.4	1	0	0.2	0	0	0	0	5	183	471.794362005312	k	2	0	1
0	1	0.4	0.4	0.2	0.6	0	3	1	1	5	184	596.224766981322	j	1	0	1
0	1	0.6	0.4	0.4	0.4	0	0	0	1	5	185	409.675272007007	j	1	1	0
1	2	0.8	1	0.4	0	0	2	1	0	5	186	590.349182981299	j	1	1	0
0	2	0	0.6	1	0.4	0	0	0	1	5	187	419.422698993003	k	2	1	1
0	1	0.8	0.6	0.4	0.4	0	2	1	0	5	188	590.595986985136	j	1	0	0
1	1	0.6	0	0.8	0.6	0	0	0	1	5	189	626.789561007172	j	1	0	1
1	2	0.4	1	0.6	1	0	2	1	0	5	190	432.891698990716	k	2	1	1
0	2	0	0.4	1	0.6	0	0	0	1	5	191	510.822790005477	k	2	1	1
0	1	0.4	0	0.6	0.8	1	2	1	0	5	192	883.501809003064	k	2	0	1
0	2	0.2	0.8	0.4	1	0	1	1	0	5	193	447.618014994077	j	1	1	1
0	1	1	0.4	0.4	0.4	0	1	1	1	5	194	508.155930001521	j	1	0	1
0	2	0	1	0.8	0.4	0	1	1	1	5	195	361.199798004236	k	2	1	1
1	2	0.4	0.8	1	1	0	0	0	1	5	196	581.872530019609	j	1	1	1
1	2	0.4	0.6	0.8	1	1	0	0	0	5	197	450.787562993355	k	2	1	1
0	2	0.6	0.8	0.6	0.8	0	0	0	0	5	198	439.117351023015	j	1	1	1
1	2	0.4	0.4	0.8	0.6	0	0	0	0	5	199	436.439047014574	j	1	1	1
0	1	1	0.6	1	0.8	0	5	1	1	5	200	602.942382014589	k	2	0	1
0	2	0	0.8	0.4	0.8	0	1	1	0	5	201	583.443467010511	j	1	1	1
0	2	0.6	1	0.8	1	1	0	0	1	5	202	386.794780002674	k	2	1	1
0	2	0.6	1	1	0.8	1	0	0	0	5	203	393.092131998856	k	2	1	1
1	2	-0	-0	1	1	0	0	0	0	5	204	459.876431996236	j	1	1	1
1	2	0.8	0.8	-0	1	1	0	0	0	5	205	507.809798989911	j	1	1	1
1	1	0.6	0.6	1	0.4	0	5	1	1	5	206	429.245358012849	j	1	0	1
1	1	0	0.6	0.6	0.8	1	0	0	1	5	207	411.864538007649	k	2	0	1
0	1	0.2	0.4	0	0.6	1	0	0	0	5	208	456.960642011836	k	2	1	0
1	1	0.6	0.6	0.4	0	0	0	0	0	5	209	444.650536985137	j	1	0	0
1	1	0.8	0	0.6	0.4	1	0	0	0	5	210	387.526227976196	j	1	0	1
1	2	0.8	0.8	0.8	-0	1	5	1	0	5	211	584.118575003231	k	2	1	1
1	2	0.8	0.4	0.8	0.8	0	0	0	1	5	212	443.41015900136	j	1	1	1
1	2	0	0.4	0.4	0.8	0	0	0	0	5	213	496.139808004955	j	1	1	1
0	2	0.4	0.2	0.4	0.4	1	0	0	0	5	214	533.719641010975	k	2	0	0
1	2	0	0	0.4	0.4	1	0	0	0	5	215	514.588993013604	j	1	0	1
0	1	0.4	0.4	0.8	0.6	1	5	1	0	5	216	605.796016025124	j	1	0	1
0	1	0.4	0.2	0.4	0	0	0	0	1	5	217	602.622081991285	j	1	0	1
1	2	0.4	0.4	0	0.4	1	2	1	0	5	218	473.202846973436	j	1	1	0
1	1	0.4	0.2	0.4	0.4	0	1	1	0	5	219	452.585107996128	k	2	0	1
0	2	0.4	0.2	0.4	0.4	1	1	1	1	5	220	427.945589006413	k	2	1	1
1	1	0.6	0.4	0.4	0.4	1	1	1	1	5	221	607.734047982376	k	2	0	1
1	1	0.4	1	0.6	0.2	1	0	0	1	5	222	396.619079023367	k	2	0	1
1	2	0	0.4	0.2	0.4	1	2	1	1	5	223	425.979410996661	k	2	0	0
0	2	0.2	0.2	0	0.4	1	0	0	1	5	224	405.05729499273	k	2	1	0
0	2	0.4	0	0.2	0	1	0	0	0	5	225	473.97908999119	j	1	1	1
1	1	0.4	1	0.4	0.6	1	3	1	0	5	226	624.556213995675	j	1	0	1
1	1	0.6	0.6	0.4	0	1	0	0	1	5	227	483.153490989935	j	1	0	1
1	2	0.2	0.4	0	0.2	0	2	1	0	5	228	457.560962007847	j	1	1	1
0	2	0.2	0	0.4	0.6	0	0	0	1	5	229	431.491506984457	k	2	1	1
1	1	0.6	1	0.6	0.4	1	2	1	0	5	230	498.681088007288	j	1	0	1
1	1	0	0.8	0.6	0	1	0	0	1	5	231	743.609602999641	j	1	0	1
0	1	0.2	0.8	0	0.6	1	0	0	0	5	232	628.41767797363	j	1	1	0
1	2	0	0.2	0	0.4	1	3	1	0	5	233	441.914262017235	k	2	0	0
1	2	0.6	0	0	0.8	1	0	0	1	5	234	565.843466989463	j	1	0	1
0	2	0.6	0	0.6	0	1	0	0	0	5	235	708.708985010162	k	2	0	1
1	2	0.4	0	0.6	0.6	0	0	0	0	5	236	528.213764016982	j	1	0	1
0	1	0.4	0.6	0.8	0	0	4	1	0	5	237	747.706690017367	j	1	1	1
0	2	1	0.4	0.4	0.6	1	1	1	0	5	238	600.715542008402	k	2	0	1
1	1	0	0.6	0.6	0.4	0	1	1	1	5	239	413.403704995289	j	1	1	1
1	2	0.4	0.4	1	0.6	0	1	1	1	5	240	556.691955978749	j	1	0	1
0	2	0.6	0.2	0.4	0.6	1	0	0	1	5	241	607.502635015408	j	1	0	1
0	2	0.6	0.2	0.6	0.4	0	0	0	0	5	242	541.229160997318	j	1	0	1
1	1	0	1	0.6	1	1	3	1	1	5	243	792.200945987133	k	2	1	1
1	2	0.2	-0	0.6	0.6	1	1	1	0	5	244	533.971591008594	j	1	0	1
1	2	0.4	0.4	0.2	1	0	0	0	1	5	245	572.605110995937	k	2	1	0
1	2	0.4	0.8	0.4	0.2	1	0	0	0	5	246	414.703074988211	k	2	1	1
1	2	1	0.6	0.8	0.4	0	0	0	0	5	247	485.625763016287	k	2	1	1
1	2	0.8	0.2	0.6	0.8	0	0	0	0	5	248	513.002193998545	k	2	1	1
1	1	0.2	0	1	0.6	1	5	1	1	5	249	437.748104013735	j	1	1	1
0	1	0.2	0.4	0	0.2	1	0	0	1	5	250	437.011005997192	j	1	1	1
1	2	1	0.8	0.2	0.6	0	2	1	0	5	251	441.972863016417	k	2	1	1
1	1	0.2	0.4	0.4	0	0	1	1	0	5	252	637.110357987694	k	2	1	1
0	2	0.4	0.8	0.8	0.4	0	1	1	1	5	253	451.081949984655	k	2	1	1
0	1	1	0.6	0.4	0.8	1	1	1	1	5	254	440.003436000552	j	1	1	1
1	2	0.6	0.8	0.8	0.4	1	1	1	1	5	255	516.513368987944	k	2	1	1
1	1	0.6	0.6	0.6	0.8	0	1	1	1	5	256	401.898292999249	j	1	1	1
0	1	0.8	0.4	0.6	0.8	1	0	0	1	5	257	372.460218990454	j	1	1	1
1	1	0.2	0.6	0.4	0.6	0	0	0	0	5	258	563.483778008958	j	1	1	1
0	1	1	1	0.6	0.4	1	0	0	0	5	259	429.306472011376	j	1	1	1
0	2	0.2	0.8	0.8	0.6	0	4	1	1	5	260	557.165737001924	j	1	1	1
1	1	0.6	0.6	1	0.6	0	1	1	0	5	261	400.334706006106	j	1	1	1
0	1	0.8	0.8	0.6	0.8	1	0	0	1	5	262	452.790571987862	j	1	1	1
1	2	0	0	0.8	1	0	2	1	1	5	263	545.15130200889	j	1	1	1
0	1	0.4	0.8	0.8	0.6	0	1	1	0	5	264	543.375482986448	j	1	0	0
0	2	0.4	1	0	0.8	1	1	1	1	5	265	667.185496975435	k	2	0	0
1	2	0.2	1	0.4	0.4	1	0	0	1	5	266	449.361945997225	k	2	1	0
1	2	0.2	0.2	1	0.4	1	0	0	0	5	267	438.28746600775	k	2	1	1
0	1	0.4	0.2	0.4	0	0	3	1	1	5	268	387.134980002884	k	2	1	0
0	1	0	0.4	0.2	0.2	0	0	0	1	5	269	406.175557000097	j	1	0	0
1	1	0	0.6	0	0.2	0	0	0	0	5	270	371.612015005667	j	1	1	0
0	1	0.2	-0	0.6	0	1	0	0	0	5	271	566.182588983793	k	2	1	1
1	2	0.2	0.4	0.2	1	0	4	1	0	5	272	628.514448006172	j	1	1	1
0	2	0.4	0	0.4	-0	0	0	0	1	5	273	546.051286015427	j	1	1	1
0	1	0	-0	-0	0.6	0	2	1	0	5	274	486.3766169874	j	1	1	1
1	1	0.4	0.6	-0	0	0	0	0	1	5	275	499.245680985041	k	2	0	0
0	2	0.4	0.6	0	0.4	0	2	1	0	5	276	695.910176989855	j	1	0	0
1	2	0	0.4	0.4	0.4	0	0	0	1	5	277	484.248549008043	j	1	0	1
1	2	0	0.2	0	0.4	0	0	0	0	5	278	409.435486013535	k	2	0	1
1	1	0.2	0	0.4	-0	1	3	1	0	5	279	612.172154011205	j	1	0	1
1	1	0.6	0.6	0.2	0	1	0	0	1	5	280	636.169350997079	j	1	0	1
0	1	0.4	0.6	0.6	0.2	1	0	0	0	5	281	614.359008002793	k	2	0	1
1	2	0.6	0	0	0	1	3	1	0	5	282	451.302136003505	j	1	0	1
0	1	0.6	-0	0.4	0.6	0	1	1	0	5	283	456.954000983387	k	2	0	1
0	1	1	0.6	0.6	0.6	0	0	0	1	5	284	375.164560013218	k	2	0	1
0	1	0.6	0.2	1	0.6	0	0	0	0	5	285	402.73607900599	k	2	0	1
0	2	-0	0.6	0.6	0.4	0	3	1	1	5	286	384.110768005485	k	2	0	1
0	2	0	0.2	-0	0.6	1	0	0	1	5	287	356.561317981686	j	1	1	0
1	2	0	0.4	0.2	-0	0	0	0	0	5	288	448.093061975669	j	1	1	1
0	1	1	0.4	0.6	1	0	3	1	0	5	289	430.842094996478	k	2	1	0
1	1	0.2	0.4	0.4	0.4	0	0	0	1	5	290	379.679642996052	k	2	0	0
1	2	0	0.4	0.4	0.2	1	2	1	0	5	291	439.969866012689	j	1	1	1
0	1	0.2	0.6	0.2	0.4	1	1	1	0	5	292	427.887526981067	j	1	0	1
1	1	1	0.8	0.2	0.4	0	0	0	1	5	293	608.978601987474	j	1	0	1
0	1	1	0.2	1	0.2	1	0	0	0	5	294	471.636280009989	j	1	0	1
0	2	0.4	0.6	0.4	0.2	1	3	1	1	5	295	609.890616004122	j	1	0	0
0	2	0	0.4	0.4	1	0	0	0	1	5	296	520.80759400269	j	1	1	0
1	1	0.6	0.2	1	1	0	2	1	0	5	297	436.933871009387	j	1	0	1
1	2	0.2	0.4	0.4	0.4	1	1	1	0	5	298	873.80488900817	j	1	0	0
1	1	0.6	0.8	0.6	0.4	1	1	1	1	5	299	429.524239007151	j	1	0	1
0	1	1	0.6	0.6	0.2	1	0	0	1	5	300	595.837795990519	k	2	0	1
1	2	0.2	0.4	0.2	0.6	1	2	1	1	5	301	710.549369017826	j	1	1	0
0	2	0.4	0	0.4	1	0	0	0	1	5	302	549.115700996481	k	2	1	1
1	2	1	0.4	0	0.4	1	0	0	0	5	303	528.402679017745	k	2	1	1
1	1	0	0.4	1	0.6	0	3	1	0	5	304	527.051080018282	j	1	0	1
0	2	0.8	0.4	0.4	0	0	1	1	0	5	305	601.972745003877	j	1	1	1
1	1	0.6	0.4	0	0.4	1	1	1	1	5	306	375.292090990115	j	1	0	1
0	2	0.4	0.4	0.4	0	0	1	1	1	5	307	700.551246001851	k	2	1	1
1	2	0.4	0.2	0.4	0.6	1	0	0	1	5	308	578.950637980597	j	1	1	1
0	1	0.2	0	0.6	0.4	1	2	1	1	5	309	477.530172007391	k	2	0	1
1	1	0.2	0	0.2	0.2	0	0	0	1	5	310	363.05174898007	j	1	1	0
0	1	0.4	0.4	0	0.2	1	0	0	0	5	311	735.790931998054	k	2	1	1
0	1	0.4	0	0.4	0	0	0	0	0	5	312	604.043525992893	j	1	1	1
1	1	0.2	0.4	0	0.4	0	0	0	0	5	313	562.944907986093	k	2	0	0
0	2	0.6	0.2	0.2	0.4	1	5	1	0	5	314	638.097064977046	j	1	1	1
1	1	0.2	-0	0.2	0	1	1	1	0	5	315	540.089915011777	j	1	1	0
0	2	0.6	0	0.2	0.2	0	1	1	1	5	316	702.799771999707	k	2	0	0
0	2	0.4	0.4	0.6	-0	1	0	0	1	5	317	798.254389985232	k	2	0	1
0	1	0.2	0.6	-0	0.2	1	2	1	1	5	318	419.115751021309	j	1	0	0
1	1	0.2	0.4	0.2	0.4	0	0	0	1	5	319	487.361309991684	k	2	0	1
